<?xml version="1.0" encoding="UTF-8"?>
<?xml-stylesheet type="text/xsl" href="define-v1-updated-html.xsl"?>
<ODM
  xmlns="http://www.cdisc.org/ns/odm/v1.2"
  xmlns:xsi="http://www.w3.org/2001/XMLSchema-instance"
  xmlns:xlink="http://www.w3.org/1999/xlink"
  xmlns:def="http://www.cdisc.org/ns/def/v1.0"
  xsi:schemaLocation="http://www.cdisc.org/ns/odm/v1.2 http://www.cdisc.org/schema/def/v1.0/define1-0-0.xsd"
  FileOID="CDISCPILOT01"
  ODMVersion="1.2"
  FileType="Snapshot"
  CreationDateTime="2012-03-15T11:09:08">
<Study OID="CDISCPILOT01">
  <GlobalVariables>
    <StudyName>CDISCPILOT01</StudyName>
    <StudyDescription>CDISCPILOT01 Data Definition</StudyDescription>
    <ProtocolName>CDISCPILOT01</ProtocolName>
  </GlobalVariables>
  <MetaDataVersion OID="CDISC.SDTMIG.3.1.2"
    Name="Study CDISCPILOT01, Data Definitions"
    Description="Study CDISCPILOT01, Data Definitions"
    def:DefineVersion="1.0.0"
    def:StandardName="CDISC SDTM"
    def:StandardVersion="3.1.2">
    <def:AnnotatedCRF>
      <def:DocumentRef leafID="blankcrf"/>
    </def:AnnotatedCRF>

    <def:SupplementalDoc>
      <def:DocumentRef leafID="validationreport-p21-xlsx"/>
    </def:SupplementalDoc>

    <def:leaf ID="blankcrf" xlink:href="blankcrf.pdf">
      <def:title>Annotated Case Report Form</def:title>
    </def:leaf>
    <def:leaf ID="validationreport-p21-xlsx" xlink:href="../pilot-project-sdtm-p21.xlsx">
      <def:title>Validation Report - Pinnacle21 Excel</def:title>
    </def:leaf>

<def:ComputationMethod OID="COMPMETHOD.QSAD_QSSTRESN">Total scores of &quot;ALZHEIMER&apos;S DISEASE ASSESSMENT SCALE&quot; and &quot;NEUROPSYCHIATRIC INVENTORY - REVISED (NPI-X)&quot; were derived as described in the SAP. For all other Test codes: LBSTRESN= LBSTRESC converted to numeric</def:ComputationMethod>
<def:ComputationMethod OID="COMPMETHOD.STUDY_DAY">(date portion of --DTC) minus (date portion of RFSTDTC) , add 1 if -- DTC &gt;= RFSTDC</def:ComputationMethod>
<def:ValueListDef OID="ValueList.LB.LBCAT">
  <ItemRef ItemOID="LB.LBCAT.NULL"
  OrderNumber="1"  Mandatory="No"/>
  <ItemRef ItemOID="LB.LBCAT.CHEMISTRY"
  OrderNumber="2"  Mandatory="No"/>
  <ItemRef ItemOID="LB.LBCAT.HEMATOLOGY"
  OrderNumber="3"  Mandatory="No"/>
  <ItemRef ItemOID="LB.LBCAT.OTHER"
  OrderNumber="4"  Mandatory="No"/>
  <ItemRef ItemOID="LB.LBCAT.URINALYSIS"
  OrderNumber="5"  Mandatory="No"/>
</def:ValueListDef>
<def:ValueListDef OID="ValueList.LB.LBCAT.CHEMISTRY.LBTESTCD">
  <ItemRef ItemOID="LB.LBCAT.CHEMISTRY.LBTESTCD.ALB"
  OrderNumber="6"  Mandatory="No"/>
  <ItemRef ItemOID="LB.LBCAT.CHEMISTRY.LBTESTCD.ALP"
  OrderNumber="7"  Mandatory="No"/>
  <ItemRef ItemOID="LB.LBCAT.CHEMISTRY.LBTESTCD.ALT"
  OrderNumber="8"  Mandatory="No"/>
  <ItemRef ItemOID="LB.LBCAT.CHEMISTRY.LBTESTCD.AST"
  OrderNumber="9"  Mandatory="No"/>
  <ItemRef ItemOID="LB.LBCAT.CHEMISTRY.LBTESTCD.BILI"
  OrderNumber="10"  Mandatory="No"/>
  <ItemRef ItemOID="LB.LBCAT.CHEMISTRY.LBTESTCD.BUN"
  OrderNumber="11"  Mandatory="No"/>
  <ItemRef ItemOID="LB.LBCAT.CHEMISTRY.LBTESTCD.CA"
  OrderNumber="12"  Mandatory="No"/>
  <ItemRef ItemOID="LB.LBCAT.CHEMISTRY.LBTESTCD.CHOL"
  OrderNumber="13"  Mandatory="No"/>
  <ItemRef ItemOID="LB.LBCAT.CHEMISTRY.LBTESTCD.CK"
  OrderNumber="14"  Mandatory="No"/>
  <ItemRef ItemOID="LB.LBCAT.CHEMISTRY.LBTESTCD.CL"
  OrderNumber="15"  Mandatory="No"/>
  <ItemRef ItemOID="LB.LBCAT.CHEMISTRY.LBTESTCD.CREAT"
  OrderNumber="16"  Mandatory="No"/>
  <ItemRef ItemOID="LB.LBCAT.CHEMISTRY.LBTESTCD.GGT"
  OrderNumber="17"  Mandatory="No"/>
  <ItemRef ItemOID="LB.LBCAT.CHEMISTRY.LBTESTCD.GLUC"
  OrderNumber="18"  Mandatory="No"/>
  <ItemRef ItemOID="LB.LBCAT.CHEMISTRY.LBTESTCD.K"
  OrderNumber="19"  Mandatory="No"/>
  <ItemRef ItemOID="LB.LBCAT.CHEMISTRY.LBTESTCD.PHOS"
  OrderNumber="20"  Mandatory="No"/>
  <ItemRef ItemOID="LB.LBCAT.CHEMISTRY.LBTESTCD.PROT"
  OrderNumber="21"  Mandatory="No"/>
  <ItemRef ItemOID="LB.LBCAT.CHEMISTRY.LBTESTCD.SODIUM"
  OrderNumber="22"  Mandatory="No"/>
  <ItemRef ItemOID="LB.LBCAT.CHEMISTRY.LBTESTCD.URATE"
  OrderNumber="23"  Mandatory="No"/>
</def:ValueListDef>
<def:ValueListDef OID="ValueList.LB.LBCAT.HEMATOLOGY.LBTESTCD">
  <ItemRef ItemOID="LB.LBCAT.HEMATOLOGY.LBTESTCD.ANISO"
  OrderNumber="24"  Mandatory="No"/>
  <ItemRef ItemOID="LB.LBCAT.HEMATOLOGY.LBTESTCD.BASO"
  OrderNumber="25"  Mandatory="No"/>
  <ItemRef ItemOID="LB.LBCAT.HEMATOLOGY.LBTESTCD.EOS"
  OrderNumber="26"  Mandatory="No"/>
  <ItemRef ItemOID="LB.LBCAT.HEMATOLOGY.LBTESTCD.HCT"
  OrderNumber="27"  Mandatory="No"/>
  <ItemRef ItemOID="LB.LBCAT.HEMATOLOGY.LBTESTCD.HGB"
  OrderNumber="28"  Mandatory="No"/>
  <ItemRef ItemOID="LB.LBCAT.HEMATOLOGY.LBTESTCD.LYM"
  OrderNumber="29"  Mandatory="No"/>
  <ItemRef ItemOID="LB.LBCAT.HEMATOLOGY.LBTESTCD.MACROCY"
  OrderNumber="30"  Mandatory="No"/>
  <ItemRef ItemOID="LB.LBCAT.HEMATOLOGY.LBTESTCD.MCH"
  OrderNumber="31"  Mandatory="No"/>
  <ItemRef ItemOID="LB.LBCAT.HEMATOLOGY.LBTESTCD.MCHC"
  OrderNumber="32"  Mandatory="No"/>
  <ItemRef ItemOID="LB.LBCAT.HEMATOLOGY.LBTESTCD.MCV"
  OrderNumber="33"  Mandatory="No"/>
  <ItemRef ItemOID="LB.LBCAT.HEMATOLOGY.LBTESTCD.MICROCY"
  OrderNumber="34"  Mandatory="No"/>
  <ItemRef ItemOID="LB.LBCAT.HEMATOLOGY.LBTESTCD.MONO"
  OrderNumber="35"  Mandatory="No"/>
  <ItemRef ItemOID="LB.LBCAT.HEMATOLOGY.LBTESTCD.PLAT"
  OrderNumber="36"  Mandatory="No"/>
  <ItemRef ItemOID="LB.LBCAT.HEMATOLOGY.LBTESTCD.POIKILO"
  OrderNumber="37"  Mandatory="No"/>
  <ItemRef ItemOID="LB.LBCAT.HEMATOLOGY.LBTESTCD.POLYCHR"
  OrderNumber="38"  Mandatory="No"/>
  <ItemRef ItemOID="LB.LBCAT.HEMATOLOGY.LBTESTCD.RBC"
  OrderNumber="39"  Mandatory="No"/>
  <ItemRef ItemOID="LB.LBCAT.HEMATOLOGY.LBTESTCD.WBC"
  OrderNumber="40"  Mandatory="No"/>
</def:ValueListDef>
<def:ValueListDef OID="ValueList.LB.LBCAT.NULL.LBTESTCD">
  <ItemRef ItemOID="LB.LBCAT.NULL.LBTESTCD.HBA1C"
  OrderNumber="41"  Mandatory="No"/>
</def:ValueListDef>
<def:ValueListDef OID="ValueList.LB.LBCAT.OTHER.LBTESTCD">
  <ItemRef ItemOID="LB.LBCAT.OTHER.LBTESTCD.TSH"
  OrderNumber="42"  Mandatory="No"/>
  <ItemRef ItemOID="LB.LBCAT.OTHER.LBTESTCD.VITB12"
  OrderNumber="43"  Mandatory="No"/>
</def:ValueListDef>
<def:ValueListDef OID="ValueList.LB.LBCAT.URINALYSIS.LBTESTCD">
  <ItemRef ItemOID="LB.LBCAT.URINALYSIS.LBTESTCD.COLOR"
  OrderNumber="44"  Mandatory="No"/>
  <ItemRef ItemOID="LB.LBCAT.URINALYSIS.LBTESTCD.KETONES"
  OrderNumber="45"  Mandatory="No"/>
  <ItemRef ItemOID="LB.LBCAT.URINALYSIS.LBTESTCD.PH"
  OrderNumber="46"  Mandatory="No"/>
  <ItemRef ItemOID="LB.LBCAT.URINALYSIS.LBTESTCD.SPGRAV"
  OrderNumber="47"  Mandatory="No"/>
  <ItemRef ItemOID="LB.LBCAT.URINALYSIS.LBTESTCD.UROBIL"
  OrderNumber="48"  Mandatory="No"/>
</def:ValueListDef>
<def:ValueListDef OID="ValueList.QS.QSTESTCD">
  <ItemRef ItemOID="QS.QSTESTCD.ACITM01"
  OrderNumber="49"  Mandatory="No"/>
  <ItemRef ItemOID="QS.QSTESTCD.ACITM02"
  OrderNumber="50"  Mandatory="No"/>
  <ItemRef ItemOID="QS.QSTESTCD.ACITM03"
  OrderNumber="51"  Mandatory="No"/>
  <ItemRef ItemOID="QS.QSTESTCD.ACITM04"
  OrderNumber="52"  Mandatory="No"/>
  <ItemRef ItemOID="QS.QSTESTCD.ACITM05"
  OrderNumber="53"  Mandatory="No"/>
  <ItemRef ItemOID="QS.QSTESTCD.ACITM06"
  OrderNumber="54"  Mandatory="No"/>
  <ItemRef ItemOID="QS.QSTESTCD.ACITM07"
  OrderNumber="55"  Mandatory="No"/>
  <ItemRef ItemOID="QS.QSTESTCD.ACITM08"
  OrderNumber="56"  Mandatory="No"/>
  <ItemRef ItemOID="QS.QSTESTCD.ACITM09"
  OrderNumber="57"  Mandatory="No"/>
  <ItemRef ItemOID="QS.QSTESTCD.ACITM10"
  OrderNumber="58"  Mandatory="No"/>
  <ItemRef ItemOID="QS.QSTESTCD.ACITM11"
  OrderNumber="59"  Mandatory="No"/>
  <ItemRef ItemOID="QS.QSTESTCD.ACITM12"
  OrderNumber="60"  Mandatory="No"/>
  <ItemRef ItemOID="QS.QSTESTCD.ACITM13"
  OrderNumber="61"  Mandatory="No"/>
  <ItemRef ItemOID="QS.QSTESTCD.ACITM14"
  OrderNumber="62"  Mandatory="No"/>
  <ItemRef ItemOID="QS.QSTESTCD.ACTOT"
  OrderNumber="63"  Mandatory="No"/>
  <ItemRef ItemOID="QS.QSTESTCD.CIBIC"
  OrderNumber="64"  Mandatory="No"/>
  <ItemRef ItemOID="QS.QSTESTCD.DAITM01"
  OrderNumber="65"  Mandatory="No"/>
  <ItemRef ItemOID="QS.QSTESTCD.DAITM02"
  OrderNumber="66"  Mandatory="No"/>
  <ItemRef ItemOID="QS.QSTESTCD.DAITM03"
  OrderNumber="67"  Mandatory="No"/>
  <ItemRef ItemOID="QS.QSTESTCD.DAITM04"
  OrderNumber="68"  Mandatory="No"/>
  <ItemRef ItemOID="QS.QSTESTCD.DAITM05"
  OrderNumber="69"  Mandatory="No"/>
  <ItemRef ItemOID="QS.QSTESTCD.DAITM06"
  OrderNumber="70"  Mandatory="No"/>
  <ItemRef ItemOID="QS.QSTESTCD.DAITM07"
  OrderNumber="71"  Mandatory="No"/>
  <ItemRef ItemOID="QS.QSTESTCD.DAITM08"
  OrderNumber="72"  Mandatory="No"/>
  <ItemRef ItemOID="QS.QSTESTCD.DAITM09"
  OrderNumber="73"  Mandatory="No"/>
  <ItemRef ItemOID="QS.QSTESTCD.DAITM10"
  OrderNumber="74"  Mandatory="No"/>
  <ItemRef ItemOID="QS.QSTESTCD.DAITM11"
  OrderNumber="75"  Mandatory="No"/>
  <ItemRef ItemOID="QS.QSTESTCD.DAITM12"
  OrderNumber="76"  Mandatory="No"/>
  <ItemRef ItemOID="QS.QSTESTCD.DAITM13"
  OrderNumber="77"  Mandatory="No"/>
  <ItemRef ItemOID="QS.QSTESTCD.DAITM14"
  OrderNumber="78"  Mandatory="No"/>
  <ItemRef ItemOID="QS.QSTESTCD.DAITM15"
  OrderNumber="79"  Mandatory="No"/>
  <ItemRef ItemOID="QS.QSTESTCD.DAITM16"
  OrderNumber="80"  Mandatory="No"/>
  <ItemRef ItemOID="QS.QSTESTCD.DAITM17"
  OrderNumber="81"  Mandatory="No"/>
  <ItemRef ItemOID="QS.QSTESTCD.DAITM18"
  OrderNumber="82"  Mandatory="No"/>
  <ItemRef ItemOID="QS.QSTESTCD.DAITM19"
  OrderNumber="83"  Mandatory="No"/>
  <ItemRef ItemOID="QS.QSTESTCD.DAITM20"
  OrderNumber="84"  Mandatory="No"/>
  <ItemRef ItemOID="QS.QSTESTCD.DAITM21"
  OrderNumber="85"  Mandatory="No"/>
  <ItemRef ItemOID="QS.QSTESTCD.DAITM22"
  OrderNumber="86"  Mandatory="No"/>
  <ItemRef ItemOID="QS.QSTESTCD.DAITM23"
  OrderNumber="87"  Mandatory="No"/>
  <ItemRef ItemOID="QS.QSTESTCD.DAITM24"
  OrderNumber="88"  Mandatory="No"/>
  <ItemRef ItemOID="QS.QSTESTCD.DAITM25"
  OrderNumber="89"  Mandatory="No"/>
  <ItemRef ItemOID="QS.QSTESTCD.DAITM26"
  OrderNumber="90"  Mandatory="No"/>
  <ItemRef ItemOID="QS.QSTESTCD.DAITM27"
  OrderNumber="91"  Mandatory="No"/>
  <ItemRef ItemOID="QS.QSTESTCD.DAITM28"
  OrderNumber="92"  Mandatory="No"/>
  <ItemRef ItemOID="QS.QSTESTCD.DAITM29"
  OrderNumber="93"  Mandatory="No"/>
  <ItemRef ItemOID="QS.QSTESTCD.DAITM30"
  OrderNumber="94"  Mandatory="No"/>
  <ItemRef ItemOID="QS.QSTESTCD.DAITM31"
  OrderNumber="95"  Mandatory="No"/>
  <ItemRef ItemOID="QS.QSTESTCD.DAITM32"
  OrderNumber="96"  Mandatory="No"/>
  <ItemRef ItemOID="QS.QSTESTCD.DAITM33"
  OrderNumber="97"  Mandatory="No"/>
  <ItemRef ItemOID="QS.QSTESTCD.DAITM34"
  OrderNumber="98"  Mandatory="No"/>
  <ItemRef ItemOID="QS.QSTESTCD.DAITM35"
  OrderNumber="99"  Mandatory="No"/>
  <ItemRef ItemOID="QS.QSTESTCD.DAITM36"
  OrderNumber="100"  Mandatory="No"/>
  <ItemRef ItemOID="QS.QSTESTCD.DAITM37"
  OrderNumber="101"  Mandatory="No"/>
  <ItemRef ItemOID="QS.QSTESTCD.DAITM38"
  OrderNumber="102"  Mandatory="No"/>
  <ItemRef ItemOID="QS.QSTESTCD.DAITM39"
  OrderNumber="103"  Mandatory="No"/>
  <ItemRef ItemOID="QS.QSTESTCD.DAITM40"
  OrderNumber="104"  Mandatory="No"/>
  <ItemRef ItemOID="QS.QSTESTCD.MHITM01"
  OrderNumber="105"  Mandatory="No"/>
  <ItemRef ItemOID="QS.QSTESTCD.MHITM02"
  OrderNumber="106"  Mandatory="No"/>
  <ItemRef ItemOID="QS.QSTESTCD.MHITM03"
  OrderNumber="107"  Mandatory="No"/>
  <ItemRef ItemOID="QS.QSTESTCD.MHITM04"
  OrderNumber="108"  Mandatory="No"/>
  <ItemRef ItemOID="QS.QSTESTCD.MHITM05"
  OrderNumber="109"  Mandatory="No"/>
  <ItemRef ItemOID="QS.QSTESTCD.MHITM06"
  OrderNumber="110"  Mandatory="No"/>
  <ItemRef ItemOID="QS.QSTESTCD.MHITM07"
  OrderNumber="111"  Mandatory="No"/>
  <ItemRef ItemOID="QS.QSTESTCD.MHITM08"
  OrderNumber="112"  Mandatory="No"/>
  <ItemRef ItemOID="QS.QSTESTCD.MHITM09"
  OrderNumber="113"  Mandatory="No"/>
  <ItemRef ItemOID="QS.QSTESTCD.MHITM10"
  OrderNumber="114"  Mandatory="No"/>
  <ItemRef ItemOID="QS.QSTESTCD.MHITM11"
  OrderNumber="115"  Mandatory="No"/>
  <ItemRef ItemOID="QS.QSTESTCD.MHITM12"
  OrderNumber="116"  Mandatory="No"/>
  <ItemRef ItemOID="QS.QSTESTCD.MHITM13"
  OrderNumber="117"  Mandatory="No"/>
  <ItemRef ItemOID="QS.QSTESTCD.MMITM01"
  OrderNumber="118"  Mandatory="No"/>
  <ItemRef ItemOID="QS.QSTESTCD.MMITM02"
  OrderNumber="119"  Mandatory="No"/>
  <ItemRef ItemOID="QS.QSTESTCD.MMITM03"
  OrderNumber="120"  Mandatory="No"/>
  <ItemRef ItemOID="QS.QSTESTCD.MMITM04"
  OrderNumber="121"  Mandatory="No"/>
  <ItemRef ItemOID="QS.QSTESTCD.MMITM05"
  OrderNumber="122"  Mandatory="No"/>
  <ItemRef ItemOID="QS.QSTESTCD.MMITM06"
  OrderNumber="123"  Mandatory="No"/>
  <ItemRef ItemOID="QS.QSTESTCD.NPITM01"
  OrderNumber="124"  Mandatory="No"/>
  <ItemRef ItemOID="QS.QSTESTCD.NPITM01D"
  OrderNumber="125"  Mandatory="No"/>
  <ItemRef ItemOID="QS.QSTESTCD.NPITM01F"
  OrderNumber="126"  Mandatory="No"/>
  <ItemRef ItemOID="QS.QSTESTCD.NPITM01S"
  OrderNumber="127"  Mandatory="No"/>
  <ItemRef ItemOID="QS.QSTESTCD.NPITM01V"
  OrderNumber="128"  Mandatory="No"/>
  <ItemRef ItemOID="QS.QSTESTCD.NPITM02"
  OrderNumber="129"  Mandatory="No"/>
  <ItemRef ItemOID="QS.QSTESTCD.NPITM02D"
  OrderNumber="130"  Mandatory="No"/>
  <ItemRef ItemOID="QS.QSTESTCD.NPITM02F"
  OrderNumber="131"  Mandatory="No"/>
  <ItemRef ItemOID="QS.QSTESTCD.NPITM02S"
  OrderNumber="132"  Mandatory="No"/>
  <ItemRef ItemOID="QS.QSTESTCD.NPITM02V"
  OrderNumber="133"  Mandatory="No"/>
  <ItemRef ItemOID="QS.QSTESTCD.NPITM03"
  OrderNumber="134"  Mandatory="No"/>
  <ItemRef ItemOID="QS.QSTESTCD.NPITM03D"
  OrderNumber="135"  Mandatory="No"/>
  <ItemRef ItemOID="QS.QSTESTCD.NPITM03F"
  OrderNumber="136"  Mandatory="No"/>
  <ItemRef ItemOID="QS.QSTESTCD.NPITM03S"
  OrderNumber="137"  Mandatory="No"/>
  <ItemRef ItemOID="QS.QSTESTCD.NPITM03V"
  OrderNumber="138"  Mandatory="No"/>
  <ItemRef ItemOID="QS.QSTESTCD.NPITM04"
  OrderNumber="139"  Mandatory="No"/>
  <ItemRef ItemOID="QS.QSTESTCD.NPITM04D"
  OrderNumber="140"  Mandatory="No"/>
  <ItemRef ItemOID="QS.QSTESTCD.NPITM04F"
  OrderNumber="141"  Mandatory="No"/>
  <ItemRef ItemOID="QS.QSTESTCD.NPITM04S"
  OrderNumber="142"  Mandatory="No"/>
  <ItemRef ItemOID="QS.QSTESTCD.NPITM04V"
  OrderNumber="143"  Mandatory="No"/>
  <ItemRef ItemOID="QS.QSTESTCD.NPITM05"
  OrderNumber="144"  Mandatory="No"/>
  <ItemRef ItemOID="QS.QSTESTCD.NPITM05D"
  OrderNumber="145"  Mandatory="No"/>
  <ItemRef ItemOID="QS.QSTESTCD.NPITM05F"
  OrderNumber="146"  Mandatory="No"/>
  <ItemRef ItemOID="QS.QSTESTCD.NPITM05S"
  OrderNumber="147"  Mandatory="No"/>
  <ItemRef ItemOID="QS.QSTESTCD.NPITM05V"
  OrderNumber="148"  Mandatory="No"/>
  <ItemRef ItemOID="QS.QSTESTCD.NPITM06"
  OrderNumber="149"  Mandatory="No"/>
  <ItemRef ItemOID="QS.QSTESTCD.NPITM06D"
  OrderNumber="150"  Mandatory="No"/>
  <ItemRef ItemOID="QS.QSTESTCD.NPITM06F"
  OrderNumber="151"  Mandatory="No"/>
  <ItemRef ItemOID="QS.QSTESTCD.NPITM06S"
  OrderNumber="152"  Mandatory="No"/>
  <ItemRef ItemOID="QS.QSTESTCD.NPITM06V"
  OrderNumber="153"  Mandatory="No"/>
  <ItemRef ItemOID="QS.QSTESTCD.NPITM07"
  OrderNumber="154"  Mandatory="No"/>
  <ItemRef ItemOID="QS.QSTESTCD.NPITM07D"
  OrderNumber="155"  Mandatory="No"/>
  <ItemRef ItemOID="QS.QSTESTCD.NPITM07F"
  OrderNumber="156"  Mandatory="No"/>
  <ItemRef ItemOID="QS.QSTESTCD.NPITM07S"
  OrderNumber="157"  Mandatory="No"/>
  <ItemRef ItemOID="QS.QSTESTCD.NPITM07V"
  OrderNumber="158"  Mandatory="No"/>
  <ItemRef ItemOID="QS.QSTESTCD.NPITM08"
  OrderNumber="159"  Mandatory="No"/>
  <ItemRef ItemOID="QS.QSTESTCD.NPITM08D"
  OrderNumber="160"  Mandatory="No"/>
  <ItemRef ItemOID="QS.QSTESTCD.NPITM08F"
  OrderNumber="161"  Mandatory="No"/>
  <ItemRef ItemOID="QS.QSTESTCD.NPITM08S"
  OrderNumber="162"  Mandatory="No"/>
  <ItemRef ItemOID="QS.QSTESTCD.NPITM08V"
  OrderNumber="163"  Mandatory="No"/>
  <ItemRef ItemOID="QS.QSTESTCD.NPITM09"
  OrderNumber="164"  Mandatory="No"/>
  <ItemRef ItemOID="QS.QSTESTCD.NPITM09D"
  OrderNumber="165"  Mandatory="No"/>
  <ItemRef ItemOID="QS.QSTESTCD.NPITM09F"
  OrderNumber="166"  Mandatory="No"/>
  <ItemRef ItemOID="QS.QSTESTCD.NPITM09S"
  OrderNumber="167"  Mandatory="No"/>
  <ItemRef ItemOID="QS.QSTESTCD.NPITM09V"
  OrderNumber="168"  Mandatory="No"/>
  <ItemRef ItemOID="QS.QSTESTCD.NPITM10"
  OrderNumber="169"  Mandatory="No"/>
  <ItemRef ItemOID="QS.QSTESTCD.NPITM10D"
  OrderNumber="170"  Mandatory="No"/>
  <ItemRef ItemOID="QS.QSTESTCD.NPITM10F"
  OrderNumber="171"  Mandatory="No"/>
  <ItemRef ItemOID="QS.QSTESTCD.NPITM10S"
  OrderNumber="172"  Mandatory="No"/>
  <ItemRef ItemOID="QS.QSTESTCD.NPITM10V"
  OrderNumber="173"  Mandatory="No"/>
  <ItemRef ItemOID="QS.QSTESTCD.NPITM11"
  OrderNumber="174"  Mandatory="No"/>
  <ItemRef ItemOID="QS.QSTESTCD.NPITM11D"
  OrderNumber="175"  Mandatory="No"/>
  <ItemRef ItemOID="QS.QSTESTCD.NPITM11F"
  OrderNumber="176"  Mandatory="No"/>
  <ItemRef ItemOID="QS.QSTESTCD.NPITM11S"
  OrderNumber="177"  Mandatory="No"/>
  <ItemRef ItemOID="QS.QSTESTCD.NPITM11V"
  OrderNumber="178"  Mandatory="No"/>
  <ItemRef ItemOID="QS.QSTESTCD.NPITM12"
  OrderNumber="179"  Mandatory="No"/>
  <ItemRef ItemOID="QS.QSTESTCD.NPITM12D"
  OrderNumber="180"  Mandatory="No"/>
  <ItemRef ItemOID="QS.QSTESTCD.NPITM12F"
  OrderNumber="181"  Mandatory="No"/>
  <ItemRef ItemOID="QS.QSTESTCD.NPITM12S"
  OrderNumber="182"  Mandatory="No"/>
  <ItemRef ItemOID="QS.QSTESTCD.NPITM12V"
  OrderNumber="183"  Mandatory="No"/>
  <ItemRef ItemOID="QS.QSTESTCD.NPTOT"
  OrderNumber="184"  Mandatory="No"/>
</def:ValueListDef>
<def:ValueListDef OID="ValueList.SC.SCTESTCD">
  <ItemRef ItemOID="SC.SCTESTCD.EDLEVEL"
  OrderNumber="185"  Mandatory="No"/>
</def:ValueListDef>
<def:ValueListDef OID="ValueList.SUPPAE.QNAM">
  <ItemRef ItemOID="SUPPAE.QNAM.TRTEMFL"
  OrderNumber="186"  Mandatory="No"/>
</def:ValueListDef>
<def:ValueListDef OID="ValueList.SUPPDM.QNAM">
  <ItemRef ItemOID="SUPPDM.QNAM.COMPLT16"
  OrderNumber="187"  Mandatory="No"/>
  <ItemRef ItemOID="SUPPDM.QNAM.COMPLT24"
  OrderNumber="188"  Mandatory="No"/>
  <ItemRef ItemOID="SUPPDM.QNAM.COMPLT8"
  OrderNumber="189"  Mandatory="No"/>
  <ItemRef ItemOID="SUPPDM.QNAM.EFFICACY"
  OrderNumber="190"  Mandatory="No"/>
  <ItemRef ItemOID="SUPPDM.QNAM.SAFETY"
  OrderNumber="191"  Mandatory="No"/>
  <ItemRef ItemOID="SUPPDM.QNAM.ITT"
  OrderNumber="192"  Mandatory="No"/>
</def:ValueListDef>
<def:ValueListDef OID="ValueList.SUPPDS.QNAM">
  <ItemRef ItemOID="SUPPDS.QNAM.ENTCRIT"
  OrderNumber="193"  Mandatory="No"/>
</def:ValueListDef>
<def:ValueListDef OID="ValueList.SUPPLB.QNAM">
  <ItemRef ItemOID="SUPPLB.QNAM.ENDPOINT"
  OrderNumber="194"  Mandatory="No"/>
  <ItemRef ItemOID="SUPPLB.QNAM.LBTMSHI"
  OrderNumber="195"  Mandatory="No"/>
</def:ValueListDef>
<def:ValueListDef OID="ValueList.TS.TSPARMCD">
  <ItemRef ItemOID="TS.TSPARMCD.ADDON"
  OrderNumber="196"  Mandatory="No"/>
  <ItemRef ItemOID="TS.TSPARMCD.AGEMAX"
  OrderNumber="197"  Mandatory="No"/>
  <ItemRef ItemOID="TS.TSPARMCD.AGEMIN"
  OrderNumber="198"  Mandatory="No"/>
  <ItemRef ItemOID="TS.TSPARMCD.AGESPAN"
  OrderNumber="199"  Mandatory="No"/>
  <ItemRef ItemOID="TS.TSPARMCD.COMPTRT"
  OrderNumber="200"  Mandatory="No"/>
  <ItemRef ItemOID="TS.TSPARMCD.DOSE"
  OrderNumber="201"  Mandatory="No"/>
  <ItemRef ItemOID="TS.TSPARMCD.DOSFRQ"
  OrderNumber="202"  Mandatory="No"/>
  <ItemRef ItemOID="TS.TSPARMCD.DOSU"
  OrderNumber="203"  Mandatory="No"/>
  <ItemRef ItemOID="TS.TSPARMCD.INDIC"
  OrderNumber="204"  Mandatory="No"/>
  <ItemRef ItemOID="TS.TSPARMCD.LENGTH"
  OrderNumber="205"  Mandatory="No"/>
  <ItemRef ItemOID="TS.TSPARMCD.OBJPRIM"
  OrderNumber="206"  Mandatory="No"/>
  <ItemRef ItemOID="TS.TSPARMCD.OBJSEC"
  OrderNumber="207"  Mandatory="No"/>
  <ItemRef ItemOID="TS.TSPARMCD.PLANSUB"
  OrderNumber="208"  Mandatory="No"/>
  <ItemRef ItemOID="TS.TSPARMCD.RANDOM"
  OrderNumber="209"  Mandatory="No"/>
  <ItemRef ItemOID="TS.TSPARMCD.ROUTE"
  OrderNumber="210"  Mandatory="No"/>
  <ItemRef ItemOID="TS.TSPARMCD.SEXPOP"
  OrderNumber="211"  Mandatory="No"/>
  <ItemRef ItemOID="TS.TSPARMCD.SPONSOR"
  OrderNumber="212"  Mandatory="No"/>
  <ItemRef ItemOID="TS.TSPARMCD.TBLIND"
  OrderNumber="213"  Mandatory="No"/>
  <ItemRef ItemOID="TS.TSPARMCD.TCNTRL"
  OrderNumber="214"  Mandatory="No"/>
  <ItemRef ItemOID="TS.TSPARMCD.TDIGRP"
  OrderNumber="215"  Mandatory="No"/>
  <ItemRef ItemOID="TS.TSPARMCD.TINDTP"
  OrderNumber="216"  Mandatory="No"/>
  <ItemRef ItemOID="TS.TSPARMCD.TITLE"
  OrderNumber="217"  Mandatory="No"/>
  <ItemRef ItemOID="TS.TSPARMCD.TPHASE"
  OrderNumber="218"  Mandatory="No"/>
  <ItemRef ItemOID="TS.TSPARMCD.TRT"
  OrderNumber="219"  Mandatory="No"/>
  <ItemRef ItemOID="TS.TSPARMCD.TTYPE"
  OrderNumber="220"  Mandatory="No"/>
</def:ValueListDef>
<def:ValueListDef OID="ValueList.VS.VSTESTCD">
  <ItemRef ItemOID="VS.VSTESTCD.DIABP"
  OrderNumber="221"  Mandatory="No"/>
  <ItemRef ItemOID="VS.VSTESTCD.HEIGHT"
  OrderNumber="222"  Mandatory="No"/>
  <ItemRef ItemOID="VS.VSTESTCD.PULSE"
  OrderNumber="223"  Mandatory="No"/>
  <ItemRef ItemOID="VS.VSTESTCD.SYSBP"
  OrderNumber="224"  Mandatory="No"/>
  <ItemRef ItemOID="VS.VSTESTCD.TEMP"
  OrderNumber="225"  Mandatory="No"/>
  <ItemRef ItemOID="VS.VSTESTCD.WEIGHT"
  OrderNumber="226"  Mandatory="No"/>
</def:ValueListDef>
<ItemGroupDef OID="TA"
  Name="TA"
  Repeating="No"
  IsReferenceData="Yes"
  Purpose="Tabulation"
  def:Label="Trial Arms"
  def:Structure="One record per planned Element per Arm"
  def:DomainKeys="STUDYID, ARMCD, TAETORD"
  def:Class="Trial Design"
  def:ArchiveLocationID="Location.TA">
  <ItemRef ItemOID="TA.STUDYID"
  OrderNumber="1"
  Mandatory="Yes"
  Role="IDENTIFIER"
  RoleCodeListOID="ROLES"/>
  <ItemRef ItemOID="TA.DOMAIN"
  OrderNumber="2"
  Mandatory="Yes"
  Role="IDENTIFIER"
  RoleCodeListOID="ROLES"/>
  <ItemRef ItemOID="TA.ARMCD"
  OrderNumber="3"
  Mandatory="Yes"
  Role="TOPIC"
  RoleCodeListOID="ROLES"/>
  <ItemRef ItemOID="TA.ARM"
  OrderNumber="4"
  Mandatory="Yes"
  Role="SYNONYM QUALIFIER"
  RoleCodeListOID="ROLES"/>
  <ItemRef ItemOID="TA.TAETORD"
  OrderNumber="5"
  Mandatory="Yes"
  Role="IDENTIFIER"
  RoleCodeListOID="ROLES"/>
  <ItemRef ItemOID="TA.ETCD"
  OrderNumber="6"
  Mandatory="Yes"
  Role="RECORD QUALIFIER"
  RoleCodeListOID="ROLES"/>
  <ItemRef ItemOID="TA.ELEMENT"
  OrderNumber="7"
  Mandatory="No"
  Role="SYNONYM QUALIFIER"
  RoleCodeListOID="ROLES"/>
  <ItemRef ItemOID="TA.TABRANCH"
  OrderNumber="8"
  Mandatory="No"
  Role="RULE"
  RoleCodeListOID="ROLES"/>
  <ItemRef ItemOID="TA.TATRANS"
  OrderNumber="9"
  Mandatory="No"
  Role="RULE"
  RoleCodeListOID="ROLES"/>
  <ItemRef ItemOID="TA.EPOCH"
  OrderNumber="10"
  Mandatory="Yes"
  Role="TIMING"
  RoleCodeListOID="ROLES"/>
  <def:leaf ID="Location.TA" xlink:href="ta.parquet">
  <def:title>ta.parquet</def:title>
  </def:leaf>
</ItemGroupDef>
<ItemGroupDef OID="TE"
  Name="TE"
  Repeating="No"
  IsReferenceData="Yes"
  Purpose="Tabulation"
  def:Label="Trial Elements"
  def:Structure="One record per planned Element"
  def:DomainKeys="STUDYID, ETCD"
  def:Class="Trial Design"
  def:ArchiveLocationID="Location.TE">
  <ItemRef ItemOID="TE.STUDYID"
  OrderNumber="1"
  Mandatory="Yes"
  Role="IDENTIFIER"
  RoleCodeListOID="ROLES"/>
  <ItemRef ItemOID="TE.DOMAIN"
  OrderNumber="2"
  Mandatory="Yes"
  Role="IDENTIFIER"
  RoleCodeListOID="ROLES"/>
  <ItemRef ItemOID="TE.ETCD"
  OrderNumber="3"
  Mandatory="Yes"
  Role="TOPIC"
  RoleCodeListOID="ROLES"/>
  <ItemRef ItemOID="TE.ELEMENT"
  OrderNumber="4"
  Mandatory="Yes"
  Role="SYNONYM QUALIFIER"
  RoleCodeListOID="ROLES"/>
  <ItemRef ItemOID="TE.TESTRL"
  OrderNumber="5"
  Mandatory="Yes"
  Role="RULE"
  RoleCodeListOID="ROLES"/>
  <ItemRef ItemOID="TE.TEENRL"
  OrderNumber="6"
  Mandatory="No"
  Role="RULE"
  RoleCodeListOID="ROLES"/>
  <ItemRef ItemOID="TE.TEDUR"
  OrderNumber="7"
  Mandatory="No"
  Role="TIMING"
  RoleCodeListOID="ROLES"/>
  <def:leaf ID="Location.TE" xlink:href="te.parquet">
  <def:title>te.parquet</def:title>
  </def:leaf>
</ItemGroupDef>
<ItemGroupDef OID="TI"
  Name="TI"
  Repeating="No"
  IsReferenceData="Yes"
  Purpose="Tabulation"
  def:Label="Trial Inclusion/ Exclusion Criteria"
  def:Structure="One record per I/E criterion"
  def:DomainKeys="STUDYID, IETESTCD"
  def:Class="Trial Design"
  def:ArchiveLocationID="Location.TI">
  <ItemRef ItemOID="TI.STUDYID"
  OrderNumber="1"
  Mandatory="Yes"
  Role="IDENTIFIER"
  RoleCodeListOID="ROLES"/>
  <ItemRef ItemOID="TI.DOMAIN"
  OrderNumber="2"
  Mandatory="Yes"
  Role="IDENTIFIER"
  RoleCodeListOID="ROLES"/>
  <ItemRef ItemOID="TI.IETESTCD"
  OrderNumber="3"
  Mandatory="Yes"
  Role="TOPIC"
  RoleCodeListOID="ROLES"/>
  <ItemRef ItemOID="TI.IETEST"
  OrderNumber="4"
  Mandatory="Yes"
  Role="SYNONYM QUALIFIER"
  RoleCodeListOID="ROLES"/>
  <ItemRef ItemOID="TI.IECAT"
  OrderNumber="5"
  Mandatory="Yes"
  Role="GROUPING QUALIFIER"
  RoleCodeListOID="ROLES"/>
  <ItemRef ItemOID="TI.TIRL"
  OrderNumber="6"
  Mandatory="No"
  Role="RULE"
  RoleCodeListOID="ROLES"/>
  <def:leaf ID="Location.TI" xlink:href="ti.parquet">
  <def:title>ti.parquet</def:title>
  </def:leaf>
</ItemGroupDef>
<ItemGroupDef OID="TS"
  Name="TS"
  Repeating="No"
  IsReferenceData="Yes"
  Purpose="Tabulation"
  def:Label="Trial Summary"
  def:Structure="One record per trial summary parameter value"
  def:DomainKeys="STUDYID, TSPARMCD, TSSEQ"
  def:Class="Trial Design"
  def:ArchiveLocationID="Location.TS">
  <ItemRef ItemOID="TS.STUDYID"
  OrderNumber="1"
  Mandatory="Yes"
  Role="IDENTIFIER"
  RoleCodeListOID="ROLES"/>
  <ItemRef ItemOID="TS.DOMAIN"
  OrderNumber="2"
  Mandatory="Yes"
  Role="IDENTIFIER"
  RoleCodeListOID="ROLES"/>
  <ItemRef ItemOID="TS.TSSEQ"
  OrderNumber="3"
  Mandatory="Yes"
  Role="IDENTIFIER"
  RoleCodeListOID="ROLES"/>
  <ItemRef ItemOID="TS.TSPARMCD"
  OrderNumber="4"
  Mandatory="Yes"
  Role="TOPIC"
  RoleCodeListOID="ROLES"/>
  <ItemRef ItemOID="TS.TSPARM"
  OrderNumber="5"
  Mandatory="Yes"
  Role="SYNONYM QUALIFIER"
  RoleCodeListOID="ROLES"/>
  <ItemRef ItemOID="TS.TSVAL"
  OrderNumber="6"
  Mandatory="Yes"
  Role="RESULT QUALIFIER"
  RoleCodeListOID="ROLES"/>
  <def:leaf ID="Location.TS" xlink:href="ts.parquet">
  <def:title>ts.parquet</def:title>
  </def:leaf>
</ItemGroupDef>
<ItemGroupDef OID="TV"
  Name="TV"
  Repeating="No"
  IsReferenceData="Yes"
  Purpose="Tabulation"
  def:Label="Trial Visits"
  def:Structure="One record per planned Visit per Arm"
  def:DomainKeys="STUDYID, VISITNUM"
  def:Class="Trial Design"
  def:ArchiveLocationID="Location.TV">
  <ItemRef ItemOID="TV.STUDYID"
  OrderNumber="1"
  Mandatory="Yes"
  Role="IDENTIFIER"
  RoleCodeListOID="ROLES"/>
  <ItemRef ItemOID="TV.DOMAIN"
  OrderNumber="2"
  Mandatory="Yes"
  Role="IDENTIFIER"
  RoleCodeListOID="ROLES"/>
  <ItemRef ItemOID="TV.VISITNUM"
  OrderNumber="3"
  Mandatory="Yes"
  Role="TOPIC"
  RoleCodeListOID="ROLES"/>
  <ItemRef ItemOID="TV.VISIT"
  OrderNumber="4"
  Mandatory="No"
  Role="SYNONYM QUALIFIER"
  RoleCodeListOID="ROLES"/>
  <ItemRef ItemOID="TV.VISITDY"
  OrderNumber="5"
  Mandatory="No"
  Role="TIMING"
  RoleCodeListOID="ROLES"/>
  <ItemRef ItemOID="TV.ARMCD"
  OrderNumber="6"
  Mandatory="No"
  Role="RECORD QUALIFIER"
  RoleCodeListOID="ROLES"/>
  <ItemRef ItemOID="TV.ARM"
  OrderNumber="7"
  Mandatory="No"
  Role="SYNONYM QUALIFIER"
  RoleCodeListOID="ROLES"/>
  <ItemRef ItemOID="TV.TVSTRL"
  OrderNumber="8"
  Mandatory="Yes"
  Role="RULE"
  RoleCodeListOID="ROLES"/>
  <ItemRef ItemOID="TV.TVENRL"
  OrderNumber="9"
  Mandatory="No"
  Role="RULE"
  RoleCodeListOID="ROLES"/>
  <def:leaf ID="Location.TV" xlink:href="tv.parquet">
  <def:title>tv.parquet</def:title>
  </def:leaf>
</ItemGroupDef>
<ItemGroupDef OID="DM"
  Name="DM"
  Repeating="No"
  IsReferenceData="No"
  Purpose="Tabulation"
  def:Label="Demographics"
  def:Structure="One record per subject"
  def:DomainKeys="STUDYID, USUBJID"
  def:Class="Special Purpose"
  def:ArchiveLocationID="Location.DM">
  <ItemRef ItemOID="DM.STUDYID"
  OrderNumber="1"
  Mandatory="Yes"
  Role="IDENTIFIER"
  RoleCodeListOID="ROLES"/>
  <ItemRef ItemOID="DM.DOMAIN"
  OrderNumber="2"
  Mandatory="Yes"
  Role="IDENTIFIER"
  RoleCodeListOID="ROLES"/>
  <ItemRef ItemOID="DM.USUBJID"
  OrderNumber="3"
  Mandatory="Yes"
  Role="IDENTIFIER"
  RoleCodeListOID="ROLES"/>
  <ItemRef ItemOID="DM.SUBJID"
  OrderNumber="4"
  Mandatory="Yes"
  Role="TOPIC"
  RoleCodeListOID="ROLES"/>
  <ItemRef ItemOID="DM.RFSTDTC"
  OrderNumber="5"
  Mandatory="No"
  Role="RECORD QUALIFIER"
  RoleCodeListOID="ROLES"/>
  <ItemRef ItemOID="DM.RFENDTC"
  OrderNumber="6"
  Mandatory="No"
  Role="RECORD QUALIFIER"
  RoleCodeListOID="ROLES"/>
  <ItemRef ItemOID="DM.RFXSTDTC"
  OrderNumber="7"
  Mandatory="No"
  Role="RECORD QUALIFIER"
  RoleCodeListOID="ROLES"/>
  <ItemRef ItemOID="DM.RFXENDTC"
  OrderNumber="8"
  Mandatory="No"
  Role="RECORD QUALIFIER"
  RoleCodeListOID="ROLES"/>
  <ItemRef ItemOID="DM.RFICDTC"
  OrderNumber="9"
  Mandatory="No"
  Role="RECORD QUALIFIER"
  RoleCodeListOID="ROLES"/>
  <ItemRef ItemOID="DM.RFPENDTC"
  OrderNumber="10"
  Mandatory="No"
  Role="RECORD QUALIFIER"
  RoleCodeListOID="ROLES"/>
  <ItemRef ItemOID="DM.DTHDTC"
  OrderNumber="11"
  Mandatory="No"
  Role="RECORD QUALIFIER"
  RoleCodeListOID="ROLES"/>
  <ItemRef ItemOID="DM.DTHFL"
  OrderNumber="12"
  Mandatory="No"
  Role="RECORD QUALIFIER"
  RoleCodeListOID="ROLES"/>
  <ItemRef ItemOID="DM.SITEID"
  OrderNumber="13"
  Mandatory="Yes"
  Role="RECORD QUALIFIER"
  RoleCodeListOID="ROLES"/>
  <ItemRef ItemOID="DM.AGE"
  OrderNumber="14"
  Mandatory="No"
  Role="RECORD QUALIFIER"
  RoleCodeListOID="ROLES"/>
  <ItemRef ItemOID="DM.AGEU"
  OrderNumber="15"
  Mandatory="No"
  Role="VARIABLE QUALIFIER"
  RoleCodeListOID="ROLES"/>
  <ItemRef ItemOID="DM.SEX"
  OrderNumber="16"
  Mandatory="Yes"
  Role="RECORD QUALIFIER"
  RoleCodeListOID="ROLES"/>
  <ItemRef ItemOID="DM.RACE"
  OrderNumber="17"
  Mandatory="No"
  Role="RECORD QUALIFIER"
  RoleCodeListOID="ROLES"/>
  <ItemRef ItemOID="DM.ETHNIC"
  OrderNumber="18"
  Mandatory="No"
  Role="RECORD QUALIFIER"
  RoleCodeListOID="ROLES"/>
  <ItemRef ItemOID="DM.ARMCD"
  OrderNumber="19"
  Mandatory="Yes"
  Role="RECORD QUALIFIER"
  RoleCodeListOID="ROLES"/>
  <ItemRef ItemOID="DM.ARM"
  OrderNumber="20"
  Mandatory="Yes"
  Role="SYNONYM QUALIFIER"
  RoleCodeListOID="ROLES"/>
  <ItemRef ItemOID="DM.ACTARMCD"
  OrderNumber="21"
  Mandatory="Yes"
  Role="RECORD QUALIFIER"
  RoleCodeListOID="ROLES"/>
  <ItemRef ItemOID="DM.ACTARM"
  OrderNumber="22"
  Mandatory="Yes"
  Role="SYNONYM QUALIFIER"
  RoleCodeListOID="ROLES"/>
  <ItemRef ItemOID="DM.COUNTRY"
  OrderNumber="23"
  Mandatory="Yes"
  Role="RECORD QUALIFIER"
  RoleCodeListOID="ROLES"/>
  <ItemRef ItemOID="DM.DMDTC"
  OrderNumber="24"
  Mandatory="No"
  Role="TIMING"
  RoleCodeListOID="ROLES"/>
  <ItemRef ItemOID="DM.DMDY"
  OrderNumber="25"
  Mandatory="No"
  Role="TIMING"
  RoleCodeListOID="ROLES"/>
  <def:leaf ID="Location.DM" xlink:href="dm.parquet">
  <def:title>dm.parquet</def:title>
  </def:leaf>
</ItemGroupDef>
<ItemGroupDef OID="SE"
  Name="SE"
  Repeating="Yes"
  IsReferenceData="No"
  Purpose="Tabulation"
  def:Label="Subject Elements"
  def:Structure="One record per actual Element per subject"
  def:DomainKeys="STUDYID, USUBJID, ETCD"
  def:Class="Special Purpose"
  def:ArchiveLocationID="Location.SE">
  <ItemRef ItemOID="SE.STUDYID"
  OrderNumber="1"
  Mandatory="Yes"
  Role="IDENTIFIER"
  RoleCodeListOID="ROLES"/>
  <ItemRef ItemOID="SE.DOMAIN"
  OrderNumber="2"
  Mandatory="Yes"
  Role="IDENTIFIER"
  RoleCodeListOID="ROLES"/>
  <ItemRef ItemOID="SE.USUBJID"
  OrderNumber="3"
  Mandatory="Yes"
  Role="IDENTIFIER"
  RoleCodeListOID="ROLES"/>
  <ItemRef ItemOID="SE.SESEQ"
  OrderNumber="4"
  Mandatory="Yes"
  Role="IDENTIFIER"
  RoleCodeListOID="ROLES"/>
  <ItemRef ItemOID="SE.ETCD"
  OrderNumber="5"
  Mandatory="Yes"
  Role="TOPIC"
  RoleCodeListOID="ROLES"/>
  <ItemRef ItemOID="SE.ELEMENT"
  OrderNumber="6"
  Mandatory="No"
  Role="SYNONYM QUALIFIER"
  RoleCodeListOID="ROLES"/>
  <ItemRef ItemOID="SE.SESTDTC"
  OrderNumber="7"
  Mandatory="Yes"
  Role="TIMING"
  RoleCodeListOID="ROLES"/>
  <ItemRef ItemOID="SE.SEENDTC"
  OrderNumber="8"
  Mandatory="No"
  Role="TIMING"
  RoleCodeListOID="ROLES"/>
  <ItemRef ItemOID="SE.SEUPDES"
  OrderNumber="9"
  Mandatory="No"
  Role="SYNONYM QUALIFIER"
  RoleCodeListOID="ROLES"/>
  <def:leaf ID="Location.SE" xlink:href="se.parquet">
  <def:title>se.parquet</def:title>
  </def:leaf>
</ItemGroupDef>
<ItemGroupDef OID="SV"
  Name="SV"
  Repeating="Yes"
  IsReferenceData="No"
  Purpose="Tabulation"
  def:Label="Subject Visits"
  def:Structure="One record per actual visit per subject"
  def:DomainKeys="STUDYID, USUBJID, VISITNUM"
  def:Class="Special Purpose"
  def:ArchiveLocationID="Location.SV">
  <ItemRef ItemOID="SV.STUDYID"
  OrderNumber="1"
  Mandatory="Yes"
  Role="IDENTIFIER"
  RoleCodeListOID="ROLES"/>
  <ItemRef ItemOID="SV.DOMAIN"
  OrderNumber="2"
  Mandatory="Yes"
  Role="IDENTIFIER"
  RoleCodeListOID="ROLES"/>
  <ItemRef ItemOID="SV.USUBJID"
  OrderNumber="3"
  Mandatory="Yes"
  Role="IDENTIFIER"
  RoleCodeListOID="ROLES"/>
  <ItemRef ItemOID="SV.VISITNUM"
  OrderNumber="4"
  Mandatory="Yes"
  Role="TOPIC"
  RoleCodeListOID="ROLES"/>
  <ItemRef ItemOID="SV.VISIT"
  OrderNumber="5"
  Mandatory="No"
  Role="SYNONYM QUALIFIER"
  RoleCodeListOID="ROLES"/>
  <ItemRef ItemOID="SV.VISITDY"
  OrderNumber="6"
  Mandatory="No"
  Role="TIMING"
  RoleCodeListOID="ROLES"/>
  <ItemRef ItemOID="SV.SVSTDTC"
  OrderNumber="7"
  Mandatory="No"
  Role="TIMING"
  RoleCodeListOID="ROLES"/>
  <ItemRef ItemOID="SV.SVENDTC"
  OrderNumber="8"
  Mandatory="No"
  Role="TIMING"
  RoleCodeListOID="ROLES"/>
  <def:leaf ID="Location.SV" xlink:href="sv.parquet">
  <def:title>sv.parquet</def:title>
  </def:leaf>
</ItemGroupDef>
<ItemGroupDef OID="CM"
  Name="CM"
  Repeating="Yes"
  IsReferenceData="No"
  Purpose="Tabulation"
  def:Label="Concomitant Medications"
  def:Structure="One record per recorded medication occurrence or constant-dosing interval per subject"
  def:DomainKeys="STUDYID, USUBJID, CMTRT, CMSTDTC"
  def:Class="Interventions"
  def:ArchiveLocationID="Location.CM">
  <ItemRef ItemOID="CM.STUDYID"
  OrderNumber="1"
  Mandatory="Yes"
  Role="IDENTIFIER"
  RoleCodeListOID="ROLES"/>
  <ItemRef ItemOID="CM.DOMAIN"
  OrderNumber="2"
  Mandatory="Yes"
  Role="IDENTIFIER"
  RoleCodeListOID="ROLES"/>
  <ItemRef ItemOID="CM.USUBJID"
  OrderNumber="3"
  Mandatory="Yes"
  Role="IDENTIFIER"
  RoleCodeListOID="ROLES"/>
  <ItemRef ItemOID="CM.CMSEQ"
  OrderNumber="4"
  Mandatory="Yes"
  Role="IDENTIFIER"
  RoleCodeListOID="ROLES"/>
  <ItemRef ItemOID="CM.CMSPID"
  OrderNumber="5"
  Mandatory="No"
  Role="IDENTIFIER"
  RoleCodeListOID="ROLES"/>
  <ItemRef ItemOID="CM.CMTRT"
  OrderNumber="6"
  Mandatory="Yes"
  Role="TOPIC"
  RoleCodeListOID="ROLES"/>
  <ItemRef ItemOID="CM.CMDECOD"
  OrderNumber="7"
  Mandatory="No"
  Role="SYNONYM QUALIFIER"
  RoleCodeListOID="ROLES"/>
  <ItemRef ItemOID="CM.CMINDC"
  OrderNumber="8"
  Mandatory="No"
  Role="RECORD QUALIFIER"
  RoleCodeListOID="ROLES"/>
  <ItemRef ItemOID="CM.CMCLAS"
  OrderNumber="9"
  Mandatory="No"
  Role="VARIABLE QUALIFIER"
  RoleCodeListOID="ROLES"/>
  <ItemRef ItemOID="CM.CMDOSE"
  OrderNumber="10"
  Mandatory="No"
  Role="RECORD QUALIFIER"
  RoleCodeListOID="ROLES"/>
  <ItemRef ItemOID="CM.CMDOSU"
  OrderNumber="11"
  Mandatory="No"
  Role="VARIABLE QUALIFIER"
  RoleCodeListOID="ROLES"/>
  <ItemRef ItemOID="CM.CMDOSFRQ"
  OrderNumber="12"
  Mandatory="No"
  Role="VARIABLE QUALIFIER"
  RoleCodeListOID="ROLES"/>
  <ItemRef ItemOID="CM.CMROUTE"
  OrderNumber="13"
  Mandatory="No"
  Role="VARIABLE QUALIFIER"
  RoleCodeListOID="ROLES"/>
  <ItemRef ItemOID="CM.VISITNUM"
  OrderNumber="14"
  Mandatory="No"
  Role="TIMING"
  RoleCodeListOID="ROLES"/>
  <ItemRef ItemOID="CM.VISIT"
  OrderNumber="15"
  Mandatory="No"
  Role="TIMING"
  RoleCodeListOID="ROLES"/>
  <ItemRef ItemOID="CM.VISITDY"
  OrderNumber="16"
  Mandatory="No"
  Role="TIMING"
  RoleCodeListOID="ROLES"/>
  <ItemRef ItemOID="CM.CMDTC"
  OrderNumber="17"
  Mandatory="No"
  Role="TIMING"
  RoleCodeListOID="ROLES"/>
  <ItemRef ItemOID="CM.CMSTDTC"
  OrderNumber="18"
  Mandatory="No"
  Role="TIMING"
  RoleCodeListOID="ROLES"/>
  <ItemRef ItemOID="CM.CMENDTC"
  OrderNumber="19"
  Mandatory="No"
  Role="TIMING"
  RoleCodeListOID="ROLES"/>
  <ItemRef ItemOID="CM.CMSTDY"
  OrderNumber="20"
  Mandatory="No"
  Role="TIMING"
  RoleCodeListOID="ROLES"/>
  <ItemRef ItemOID="CM.CMENDY"
  OrderNumber="21"
  Mandatory="No"
  Role="TIMING"
  RoleCodeListOID="ROLES"/>
  <def:leaf ID="Location.CM" xlink:href="cm.parquet">
  <def:title>cm.parquet</def:title>
  </def:leaf>
</ItemGroupDef>
<ItemGroupDef OID="EX"
  Name="EX"
  Repeating="Yes"
  IsReferenceData="No"
  Purpose="Tabulation"
  def:Label="Exposure"
  def:Structure="One record per constant dosing interval per subject"
  def:DomainKeys="STUDYID, USUBJID, EXTRT, EXSTDTC"
  def:Class="Interventions"
  def:ArchiveLocationID="Location.EX">
  <ItemRef ItemOID="EX.STUDYID"
  OrderNumber="1"
  Mandatory="Yes"
  Role="IDENTIFIER"
  RoleCodeListOID="ROLES"/>
  <ItemRef ItemOID="EX.DOMAIN"
  OrderNumber="2"
  Mandatory="Yes"
  Role="IDENTIFIER"
  RoleCodeListOID="ROLES"/>
  <ItemRef ItemOID="EX.USUBJID"
  OrderNumber="3"
  Mandatory="Yes"
  Role="IDENTIFIER"
  RoleCodeListOID="ROLES"/>
  <ItemRef ItemOID="EX.EXSEQ"
  OrderNumber="4"
  Mandatory="Yes"
  Role="IDENTIFIER"
  RoleCodeListOID="ROLES"/>
  <ItemRef ItemOID="EX.EXTRT"
  OrderNumber="5"
  Mandatory="Yes"
  Role="TOPIC"
  RoleCodeListOID="ROLES"/>
  <ItemRef ItemOID="EX.EXDOSE"
  OrderNumber="6"
  Mandatory="No"
  Role="RECORD QUALIFIER"
  RoleCodeListOID="ROLES"/>
  <ItemRef ItemOID="EX.EXDOSU"
  OrderNumber="7"
  Mandatory="No"
  Role="VARIABLE QUALIFIER"
  RoleCodeListOID="ROLES"/>
  <ItemRef ItemOID="EX.EXDOSFRM"
  OrderNumber="8"
  Mandatory="No"
  Role="RECORD QUALIFIER"
  RoleCodeListOID="ROLES"/>
  <ItemRef ItemOID="EX.EXDOSFRQ"
  OrderNumber="9"
  Mandatory="No"
  Role="VARIABLE QUALIFIER"
  RoleCodeListOID="ROLES"/>
  <ItemRef ItemOID="EX.EXROUTE"
  OrderNumber="10"
  Mandatory="No"
  Role="VARIABLE QUALIFIER"
  RoleCodeListOID="ROLES"/>
  <ItemRef ItemOID="EX.VISITNUM"
  OrderNumber="11"
  Mandatory="No"
  Role="TIMING"
  RoleCodeListOID="ROLES"/>
  <ItemRef ItemOID="EX.VISIT"
  OrderNumber="12"
  Mandatory="No"
  Role="TIMING"
  RoleCodeListOID="ROLES"/>
  <ItemRef ItemOID="EX.VISITDY"
  OrderNumber="13"
  Mandatory="No"
  Role="TIMING"
  RoleCodeListOID="ROLES"/>
  <ItemRef ItemOID="EX.EXSTDTC"
  OrderNumber="14"
  Mandatory="No"
  Role="TIMING"
  RoleCodeListOID="ROLES"/>
  <ItemRef ItemOID="EX.EXENDTC"
  OrderNumber="15"
  Mandatory="No"
  Role="TIMING"
  RoleCodeListOID="ROLES"/>
  <ItemRef ItemOID="EX.EXSTDY"
  OrderNumber="16"
  Mandatory="No"
  Role="TIMING"
  RoleCodeListOID="ROLES"/>
  <ItemRef ItemOID="EX.EXENDY"
  OrderNumber="17"
  Mandatory="No"
  Role="TIMING"
  RoleCodeListOID="ROLES"/>
  <def:leaf ID="Location.EX" xlink:href="ex.parquet">
  <def:title>ex.parquet</def:title>
  </def:leaf>
</ItemGroupDef>
<ItemGroupDef OID="AE"
  Name="AE"
  Repeating="Yes"
  IsReferenceData="No"
  Purpose="Tabulation"
  def:Label="Adverse Events"
  def:Structure="One record per adverse event per subject"
  def:DomainKeys="STUDYID, USUBJID, AETERM, AESTDTC, AESEQ"
  def:Class="Events"
  def:ArchiveLocationID="Location.AE">
  <ItemRef ItemOID="AE.STUDYID"
  OrderNumber="1"
  Mandatory="Yes"
  Role="IDENTIFIER"
  RoleCodeListOID="ROLES"/>
  <ItemRef ItemOID="AE.DOMAIN"
  OrderNumber="2"
  Mandatory="Yes"
  Role="IDENTIFIER"
  RoleCodeListOID="ROLES"/>
  <ItemRef ItemOID="AE.USUBJID"
  OrderNumber="3"
  Mandatory="Yes"
  Role="IDENTIFIER"
  RoleCodeListOID="ROLES"/>
  <ItemRef ItemOID="AE.AESEQ"
  OrderNumber="4"
  Mandatory="Yes"
  Role="IDENTIFIER"
  RoleCodeListOID="ROLES"/>
  <ItemRef ItemOID="AE.AESPID"
  OrderNumber="5"
  Mandatory="No"
  Role="IDENTIFIER"
  RoleCodeListOID="ROLES"/>
  <ItemRef ItemOID="AE.AETERM"
  OrderNumber="6"
  Mandatory="Yes"
  Role="TOPIC"
  RoleCodeListOID="ROLES"/>
  <ItemRef ItemOID="AE.AELLT"
  OrderNumber="7"
  Mandatory="No"
  Role="VARIABLE QUALIFIER"
  RoleCodeListOID="ROLES"/>
  <ItemRef ItemOID="AE.AELLTCD"
  OrderNumber="8"
  Mandatory="No"
  Role="VARIABLE QUALIFIER"
  RoleCodeListOID="ROLES"/>
  <ItemRef ItemOID="AE.AEDECOD"
  OrderNumber="9"
  Mandatory="No"
  Role="SYNONYM QUALIFIER"
  RoleCodeListOID="ROLES"/>
  <ItemRef ItemOID="AE.AEPTCD"
  OrderNumber="10"
  Mandatory="No"
  Role="VARIABLE QUALIFIER"
  RoleCodeListOID="ROLES"/>
  <ItemRef ItemOID="AE.AEHLT"
  OrderNumber="11"
  Mandatory="No"
  Role="VARIABLE QUALIFIER"
  RoleCodeListOID="ROLES"/>
  <ItemRef ItemOID="AE.AEHLTCD"
  OrderNumber="12"
  Mandatory="No"
  Role="VARIABLE QUALIFIER"
  RoleCodeListOID="ROLES"/>
  <ItemRef ItemOID="AE.AEHLGT"
  OrderNumber="13"
  Mandatory="No"
  Role="VARIABLE QUALIFIER"
  RoleCodeListOID="ROLES"/>
  <ItemRef ItemOID="AE.AEHLGTCD"
  OrderNumber="14"
  Mandatory="No"
  Role="VARIABLE QUALIFIER"
  RoleCodeListOID="ROLES"/>
  <ItemRef ItemOID="AE.AEBODSYS"
  OrderNumber="15"
  Mandatory="No"
  Role="VARIABLE QUALIFIER"
  RoleCodeListOID="ROLES"/>
  <ItemRef ItemOID="AE.AEBDSYCD"
  OrderNumber="16"
  Mandatory="No"
  Role="VARIABLE QUALIFIER"
  RoleCodeListOID="ROLES"/>
  <ItemRef ItemOID="AE.AESOC"
  OrderNumber="17"
  Mandatory="No"
  Role="VARIABLE QUALIFIER"
  RoleCodeListOID="ROLES"/>
  <ItemRef ItemOID="AE.AESOCCD"
  OrderNumber="18"
  Mandatory="No"
  Role="VARIABLE QUALIFIER"
  RoleCodeListOID="ROLES"/>
  <ItemRef ItemOID="AE.AESEV"
  OrderNumber="19"
  Mandatory="No"
  Role="VARIABLE QUALIFIER"
  RoleCodeListOID="ROLES"/>
  <ItemRef ItemOID="AE.AESER"
  OrderNumber="20"
  Mandatory="No"
  Role="RECORD QUALIFIER"
  RoleCodeListOID="ROLES"/>
  <ItemRef ItemOID="AE.AEACN"
  OrderNumber="21"
  Mandatory="No"
  Role="RECORD QUALIFIER"
  RoleCodeListOID="ROLES"/>
  <ItemRef ItemOID="AE.AEREL"
  OrderNumber="22"
  Mandatory="No"
  Role="RECORD QUALIFIER"
  RoleCodeListOID="ROLES"/>
  <ItemRef ItemOID="AE.AEOUT"
  OrderNumber="23"
  Mandatory="No"
  Role="RECORD QUALIFIER"
  RoleCodeListOID="ROLES"/>
  <ItemRef ItemOID="AE.AESCAN"
  OrderNumber="24"
  Mandatory="No"
  Role="RECORD QUALIFIER"
  RoleCodeListOID="ROLES"/>
  <ItemRef ItemOID="AE.AESCONG"
  OrderNumber="25"
  Mandatory="No"
  Role="RECORD QUALIFIER"
  RoleCodeListOID="ROLES"/>
  <ItemRef ItemOID="AE.AESDISAB"
  OrderNumber="26"
  Mandatory="No"
  Role="RECORD QUALIFIER"
  RoleCodeListOID="ROLES"/>
  <ItemRef ItemOID="AE.AESDTH"
  OrderNumber="27"
  Mandatory="No"
  Role="RECORD QUALIFIER"
  RoleCodeListOID="ROLES"/>
  <ItemRef ItemOID="AE.AESHOSP"
  OrderNumber="28"
  Mandatory="No"
  Role="RECORD QUALIFIER"
  RoleCodeListOID="ROLES"/>
  <ItemRef ItemOID="AE.AESLIFE"
  OrderNumber="29"
  Mandatory="No"
  Role="RECORD QUALIFIER"
  RoleCodeListOID="ROLES"/>
  <ItemRef ItemOID="AE.AESOD"
  OrderNumber="30"
  Mandatory="No"
  Role="RECORD QUALIFIER"
  RoleCodeListOID="ROLES"/>
  <ItemRef ItemOID="AE.AEDTC"
  OrderNumber="31"
  Mandatory="No"
  Role="TIMING"
  RoleCodeListOID="ROLES"/>
  <ItemRef ItemOID="AE.AESTDTC"
  OrderNumber="32"
  Mandatory="No"
  Role="TIMING"
  RoleCodeListOID="ROLES"/>
  <ItemRef ItemOID="AE.AEENDTC"
  OrderNumber="33"
  Mandatory="No"
  Role="TIMING"
  RoleCodeListOID="ROLES"/>
  <ItemRef ItemOID="AE.AESTDY"
  OrderNumber="34"
  Mandatory="No"
  Role="TIMING"
  RoleCodeListOID="ROLES"/>
  <ItemRef ItemOID="AE.AEENDY"
  OrderNumber="35"
  Mandatory="No"
  Role="TIMING"
  RoleCodeListOID="ROLES"/>
  <def:leaf ID="Location.AE" xlink:href="ae.parquet">
  <def:title>ae.parquet</def:title>
  </def:leaf>
</ItemGroupDef>
<ItemGroupDef OID="DS"
  Name="DS"
  Repeating="Yes"
  IsReferenceData="No"
  Purpose="Tabulation"
  def:Label="Disposition"
  def:Structure="One record per disposition status or protocol milestone per subject"
  def:DomainKeys="STUDYID, USUBJID, DSDECOD, DSSTDTC"
  def:Class="Events"
  def:ArchiveLocationID="Location.DS">
  <ItemRef ItemOID="DS.STUDYID"
  OrderNumber="1"
  Mandatory="Yes"
  Role="IDENTIFIER"
  RoleCodeListOID="ROLES"/>
  <ItemRef ItemOID="DS.DOMAIN"
  OrderNumber="2"
  Mandatory="Yes"
  Role="IDENTIFIER"
  RoleCodeListOID="ROLES"/>
  <ItemRef ItemOID="DS.USUBJID"
  OrderNumber="3"
  Mandatory="Yes"
  Role="IDENTIFIER"
  RoleCodeListOID="ROLES"/>
  <ItemRef ItemOID="DS.DSSEQ"
  OrderNumber="4"
  Mandatory="Yes"
  Role="IDENTIFIER"
  RoleCodeListOID="ROLES"/>
  <ItemRef ItemOID="DS.DSSPID"
  OrderNumber="5"
  Mandatory="No"
  Role="IDENTIFIER"
  RoleCodeListOID="ROLES"/>
  <ItemRef ItemOID="DS.DSTERM"
  OrderNumber="6"
  Mandatory="Yes"
  Role="TOPIC"
  RoleCodeListOID="ROLES"/>
  <ItemRef ItemOID="DS.DSDECOD"
  OrderNumber="7"
  Mandatory="Yes"
  Role="SYNONYM QUALIFIER"
  RoleCodeListOID="ROLES"/>
  <ItemRef ItemOID="DS.DSCAT"
  OrderNumber="8"
  Mandatory="No"
  Role="GROUPING QUALIFIER"
  RoleCodeListOID="ROLES"/>
  <ItemRef ItemOID="DS.VISITNUM"
  OrderNumber="9"
  Mandatory="No"
  Role="TIMING"
  RoleCodeListOID="ROLES"/>
  <ItemRef ItemOID="DS.VISIT"
  OrderNumber="10"
  Mandatory="No"
  Role="TIMING"
  RoleCodeListOID="ROLES"/>
  <ItemRef ItemOID="DS.DSDTC"
  OrderNumber="11"
  Mandatory="No"
  Role="TIMING"
  RoleCodeListOID="ROLES"/>
  <ItemRef ItemOID="DS.DSSTDTC"
  OrderNumber="12"
  Mandatory="No"
  Role="TIMING"
  RoleCodeListOID="ROLES"/>
  <ItemRef ItemOID="DS.DSSTDY"
  OrderNumber="13"
  Mandatory="No"
  Role="TIMING"
  RoleCodeListOID="ROLES"/>
  <def:leaf ID="Location.DS" xlink:href="ds.parquet">
  <def:title>ds.parquet</def:title>
  </def:leaf>
</ItemGroupDef>
<ItemGroupDef OID="MH"
  Name="MH"
  Repeating="Yes"
  IsReferenceData="No"
  Purpose="Tabulation"
  def:Label="Medical History"
  def:Structure="One record per medical history event per subject"
  def:DomainKeys="STUDYID, USUBJID, MHTERM, MHSTDTC"
  def:Class="Events"
  def:ArchiveLocationID="Location.MH">
  <ItemRef ItemOID="MH.STUDYID"
  OrderNumber="1"
  Mandatory="Yes"
  Role="IDENTIFIER"
  RoleCodeListOID="ROLES"/>
  <ItemRef ItemOID="MH.DOMAIN"
  OrderNumber="2"
  Mandatory="Yes"
  Role="IDENTIFIER"
  RoleCodeListOID="ROLES"/>
  <ItemRef ItemOID="MH.USUBJID"
  OrderNumber="3"
  Mandatory="Yes"
  Role="IDENTIFIER"
  RoleCodeListOID="ROLES"/>
  <ItemRef ItemOID="MH.MHSEQ"
  OrderNumber="4"
  Mandatory="Yes"
  Role="IDENTIFIER"
  RoleCodeListOID="ROLES"/>
  <ItemRef ItemOID="MH.MHSPID"
  OrderNumber="5"
  Mandatory="No"
  Role="IDENTIFIER"
  RoleCodeListOID="ROLES"/>
  <ItemRef ItemOID="MH.MHTERM"
  OrderNumber="6"
  Mandatory="Yes"
  Role="TOPIC"
  RoleCodeListOID="ROLES"/>
  <ItemRef ItemOID="MH.MHLLT"
  OrderNumber="7"
  Mandatory="No"
  Role="VARIABLE QUALIFIER"
  RoleCodeListOID="ROLES"/>
  <ItemRef ItemOID="MH.MHDECOD"
  OrderNumber="8"
  Mandatory="No"
  Role="SYNONYM QUALIFIER"
  RoleCodeListOID="ROLES"/>
  <ItemRef ItemOID="MH.MHHLT"
  OrderNumber="9"
  Mandatory="No"
  Role="VARIABLE QUALIFIER"
  RoleCodeListOID="ROLES"/>
  <ItemRef ItemOID="MH.MHHLGT"
  OrderNumber="10"
  Mandatory="No"
  Role="VARIABLE QUALIFIER"
  RoleCodeListOID="ROLES"/>
  <ItemRef ItemOID="MH.MHCAT"
  OrderNumber="11"
  Mandatory="No"
  Role="GROUPING QUALIFIER"
  RoleCodeListOID="ROLES"/>
  <ItemRef ItemOID="MH.MHBODSYS"
  OrderNumber="12"
  Mandatory="No"
  Role="RECORD QUALIFIER"
  RoleCodeListOID="ROLES"/>
  <ItemRef ItemOID="MH.MHSEV"
  OrderNumber="13"
  Mandatory="No"
  Role="VARIABLE QUALIFIER"
  RoleCodeListOID="ROLES"/>
  <ItemRef ItemOID="MH.VISITNUM"
  OrderNumber="14"
  Mandatory="No"
  Role="TIMING"
  RoleCodeListOID="ROLES"/>
  <ItemRef ItemOID="MH.VISIT"
  OrderNumber="15"
  Mandatory="No"
  Role="TIMING"
  RoleCodeListOID="ROLES"/>
  <ItemRef ItemOID="MH.VISITDY"
  OrderNumber="16"
  Mandatory="No"
  Role="TIMING"
  RoleCodeListOID="ROLES"/>
  <ItemRef ItemOID="MH.MHDTC"
  OrderNumber="17"
  Mandatory="No"
  Role="TIMING"
  RoleCodeListOID="ROLES"/>
  <ItemRef ItemOID="MH.MHSTDTC"
  OrderNumber="18"
  Mandatory="No"
  Role="TIMING"
  RoleCodeListOID="ROLES"/>
  <ItemRef ItemOID="MH.MHDY"
  OrderNumber="19"
  Mandatory="No"
  Role="TIMING"
  RoleCodeListOID="ROLES"/>
  <def:leaf ID="Location.MH" xlink:href="mh.parquet">
  <def:title>mh.parquet</def:title>
  </def:leaf>
</ItemGroupDef>
<ItemGroupDef OID="LB"
  Name="LB"
  Repeating="Yes"
  IsReferenceData="No"
  Purpose="Tabulation"
  def:Label="Laboratory Tests Results"
  def:Structure="One record per analyte per planned time point number per time point reference per visit per subject"
  def:DomainKeys="STUDYID, USUBJID, LBTESTCD, VISITNUM"
  def:Class="Findings"
  def:ArchiveLocationID="Location.LB">
  <ItemRef ItemOID="LB.STUDYID"
  OrderNumber="1"
  Mandatory="Yes"
  Role="IDENTIFIER"
  RoleCodeListOID="ROLES"/>
  <ItemRef ItemOID="LB.DOMAIN"
  OrderNumber="2"
  Mandatory="Yes"
  Role="IDENTIFIER"
  RoleCodeListOID="ROLES"/>
  <ItemRef ItemOID="LB.USUBJID"
  OrderNumber="3"
  Mandatory="Yes"
  Role="IDENTIFIER"
  RoleCodeListOID="ROLES"/>
  <ItemRef ItemOID="LB.LBSEQ"
  OrderNumber="4"
  Mandatory="Yes"
  Role="IDENTIFIER"
  RoleCodeListOID="ROLES"/>
  <ItemRef ItemOID="LB.LBTESTCD"
  OrderNumber="5"
  Mandatory="Yes"
  Role="TOPIC"
  RoleCodeListOID="ROLES"/>
  <ItemRef ItemOID="LB.LBTEST"
  OrderNumber="6"
  Mandatory="Yes"
  Role="SYNONYM QUALIFIER"
  RoleCodeListOID="ROLES"/>
  <ItemRef ItemOID="LB.LBCAT"
  OrderNumber="7"
  Mandatory="No"
  Role="GROUPING QUALIFIER"
  RoleCodeListOID="ROLES"/>
  <ItemRef ItemOID="LB.LBORRES"
  OrderNumber="8"
  Mandatory="No"
  Role="RESULT QUALIFIER"
  RoleCodeListOID="ROLES"/>
  <ItemRef ItemOID="LB.LBORRESU"
  OrderNumber="9"
  Mandatory="No"
  Role="VARIABLE QUALIFIER"
  RoleCodeListOID="ROLES"/>
  <ItemRef ItemOID="LB.LBORNRLO"
  OrderNumber="10"
  Mandatory="No"
  Role="VARIABLE QUALIFIER"
  RoleCodeListOID="ROLES"/>
  <ItemRef ItemOID="LB.LBORNRHI"
  OrderNumber="11"
  Mandatory="No"
  Role="VARIABLE QUALIFIER"
  RoleCodeListOID="ROLES"/>
  <ItemRef ItemOID="LB.LBSTRESC"
  OrderNumber="12"
  Mandatory="No"
  Role="RESULT QUALIFIER"
  RoleCodeListOID="ROLES"/>
  <ItemRef ItemOID="LB.LBSTRESN"
  OrderNumber="13"
  Mandatory="No"
  Role="RESULT QUALIFIER"
  RoleCodeListOID="ROLES"/>
  <ItemRef ItemOID="LB.LBSTRESU"
  OrderNumber="14"
  Mandatory="No"
  Role="VARIABLE QUALIFIER"
  RoleCodeListOID="ROLES"/>
  <ItemRef ItemOID="LB.LBSTNRLO"
  OrderNumber="15"
  Mandatory="No"
  Role="VARIABLE QUALIFIER"
  RoleCodeListOID="ROLES"/>
  <ItemRef ItemOID="LB.LBSTNRHI"
  OrderNumber="16"
  Mandatory="No"
  Role="VARIABLE QUALIFIER"
  RoleCodeListOID="ROLES"/>
  <ItemRef ItemOID="LB.LBNRIND"
  OrderNumber="17"
  Mandatory="No"
  Role="VARIABLE QUALIFIER"
  RoleCodeListOID="ROLES"/>
  <ItemRef ItemOID="LB.LBBLFL"
  OrderNumber="18"
  Mandatory="No"
  Role="RECORD QUALIFIER"
  RoleCodeListOID="ROLES"/>
  <ItemRef ItemOID="LB.VISITNUM"
  OrderNumber="19"
  Mandatory="No"
  Role="TIMING"
  RoleCodeListOID="ROLES"/>
  <ItemRef ItemOID="LB.VISIT"
  OrderNumber="20"
  Mandatory="No"
  Role="TIMING"
  RoleCodeListOID="ROLES"/>
  <ItemRef ItemOID="LB.VISITDY"
  OrderNumber="21"
  Mandatory="No"
  Role="TIMING"
  RoleCodeListOID="ROLES"/>
  <ItemRef ItemOID="LB.LBDTC"
  OrderNumber="22"
  Mandatory="No"
  Role="TIMING"
  RoleCodeListOID="ROLES"/>
  <ItemRef ItemOID="LB.LBDY"
  OrderNumber="23"
  Mandatory="No"
  Role="TIMING"
  RoleCodeListOID="ROLES"/>
  <def:leaf ID="Location.LB" xlink:href="lb.parquet">
  <def:title>lb.parquet</def:title>
  </def:leaf>
</ItemGroupDef>
<ItemGroupDef OID="QS"
  Name="QS"
  Repeating="Yes"
  IsReferenceData="No"
  Purpose="Tabulation"
  def:Label="Questionnaires"
  def:Structure="One record per questionnaire per question per time point per visit per subject"
  def:DomainKeys="STUDYID, USUBJID, QSTESTCD, VISITNUM"
  def:Class="Findings"
  def:ArchiveLocationID="Location.QS">
  <ItemRef ItemOID="QS.STUDYID"
  OrderNumber="1"
  Mandatory="Yes"
  Role="IDENTIFIER"
  RoleCodeListOID="ROLES"/>
  <ItemRef ItemOID="QS.DOMAIN"
  OrderNumber="2"
  Mandatory="Yes"
  Role="IDENTIFIER"
  RoleCodeListOID="ROLES"/>
  <ItemRef ItemOID="QS.USUBJID"
  OrderNumber="3"
  Mandatory="Yes"
  Role="IDENTIFIER"
  RoleCodeListOID="ROLES"/>
  <ItemRef ItemOID="QS.QSSEQ"
  OrderNumber="4"
  Mandatory="Yes"
  Role="IDENTIFIER"
  RoleCodeListOID="ROLES"/>
  <ItemRef ItemOID="QS.QSTESTCD"
  OrderNumber="5"
  Mandatory="Yes"
  Role="TOPIC"
  RoleCodeListOID="ROLES"/>
  <ItemRef ItemOID="QS.QSTEST"
  OrderNumber="6"
  Mandatory="Yes"
  Role="SYNONYM QUALIFIER"
  RoleCodeListOID="ROLES"/>
  <ItemRef ItemOID="QS.QSCAT"
  OrderNumber="7"
  Mandatory="Yes"
  Role="GROUPING QUALIFIER"
  RoleCodeListOID="ROLES"/>
  <ItemRef ItemOID="QS.QSSCAT"
  OrderNumber="8"
  Mandatory="No"
  Role="GROUPING QUALIFIER"
  RoleCodeListOID="ROLES"/>
  <ItemRef ItemOID="QS.QSORRES"
  OrderNumber="9"
  Mandatory="No"
  Role="RESULT QUALIFIER"
  RoleCodeListOID="ROLES"/>
  <ItemRef ItemOID="QS.QSORRESU"
  OrderNumber="10"
  Mandatory="No"
  Role="VARIABLE QUALIFIER"
  RoleCodeListOID="ROLES"/>
  <ItemRef ItemOID="QS.QSSTRESC"
  OrderNumber="11"
  Mandatory="No"
  Role="RESULT QUALIFIER"
  RoleCodeListOID="ROLES"/>
  <ItemRef ItemOID="QS.QSSTRESN"
  OrderNumber="12"
  Mandatory="No"
  Role="RESULT QUALIFIER"
  RoleCodeListOID="ROLES"/>
  <ItemRef ItemOID="QS.QSSTRESU"
  OrderNumber="13"
  Mandatory="No"
  Role="VARIABLE QUALIFIER"
  RoleCodeListOID="ROLES"/>
  <ItemRef ItemOID="QS.QSBLFL"
  OrderNumber="14"
  Mandatory="No"
  Role="RECORD QUALIFIER"
  RoleCodeListOID="ROLES"/>
  <ItemRef ItemOID="QS.QSDRVFL"
  OrderNumber="15"
  Mandatory="No"
  Role="RECORD QUALIFIER"
  RoleCodeListOID="ROLES"/>
  <ItemRef ItemOID="QS.VISITNUM"
  OrderNumber="16"
  Mandatory="No"
  Role="TIMING"
  RoleCodeListOID="ROLES"/>
  <ItemRef ItemOID="QS.VISIT"
  OrderNumber="17"
  Mandatory="No"
  Role="TIMING"
  RoleCodeListOID="ROLES"/>
  <ItemRef ItemOID="QS.VISITDY"
  OrderNumber="18"
  Mandatory="No"
  Role="TIMING"
  RoleCodeListOID="ROLES"/>
  <ItemRef ItemOID="QS.QSDTC"
  OrderNumber="19"
  Mandatory="No"
  Role="TIMING"
  RoleCodeListOID="ROLES"/>
  <ItemRef ItemOID="QS.QSDY"
  OrderNumber="20"
  Mandatory="No"
  Role="TIMING"
  RoleCodeListOID="ROLES"/>
  <def:leaf ID="Location.QS" xlink:href="qs.parquet">
  <def:title>qs.parquet</def:title>
  </def:leaf>
</ItemGroupDef>
<ItemGroupDef OID="SC"
  Name="SC"
  Repeating="Yes"
  IsReferenceData="No"
  Purpose="Tabulation"
  def:Label="Subject Characteristics"
  def:Structure="One record per characteristic per subject"
  def:DomainKeys="STUDYID, USUBJID, SCTESTCD"
  def:Class="Findings"
  def:ArchiveLocationID="Location.SC">
  <ItemRef ItemOID="SC.STUDYID"
  OrderNumber="1"
  Mandatory="Yes"
  Role="IDENTIFIER"
  RoleCodeListOID="ROLES"/>
  <ItemRef ItemOID="SC.DOMAIN"
  OrderNumber="2"
  Mandatory="Yes"
  Role="IDENTIFIER"
  RoleCodeListOID="ROLES"/>
  <ItemRef ItemOID="SC.USUBJID"
  OrderNumber="3"
  Mandatory="Yes"
  Role="IDENTIFIER"
  RoleCodeListOID="ROLES"/>
  <ItemRef ItemOID="SC.SCSEQ"
  OrderNumber="4"
  Mandatory="Yes"
  Role="IDENTIFIER"
  RoleCodeListOID="ROLES"/>
  <ItemRef ItemOID="SC.SCTESTCD"
  OrderNumber="5"
  Mandatory="Yes"
  Role="TOPIC"
  RoleCodeListOID="ROLES"/>
  <ItemRef ItemOID="SC.SCTEST"
  OrderNumber="6"
  Mandatory="Yes"
  Role="SYNONYM QUALIFIER"
  RoleCodeListOID="ROLES"/>
  <ItemRef ItemOID="SC.SCCAT"
  OrderNumber="7"
  Mandatory="No"
  Role="GROUPING QUALIFIER"
  RoleCodeListOID="ROLES"/>
  <ItemRef ItemOID="SC.SCORRES"
  OrderNumber="8"
  Mandatory="No"
  Role="RESULT QUALIFIER"
  RoleCodeListOID="ROLES"/>
  <ItemRef ItemOID="SC.SCORRESU"
  OrderNumber="9"
  Mandatory="No"
  Role="VARIABLE QUALIFIER"
  RoleCodeListOID="ROLES"/>
  <ItemRef ItemOID="SC.SCSTRESC"
  OrderNumber="10"
  Mandatory="No"
  Role="RESULT QUALIFIER"
  RoleCodeListOID="ROLES"/>
  <ItemRef ItemOID="SC.SCSTRESN"
  OrderNumber="11"
  Mandatory="No"
  Role="RESULT QUALIFIER"
  RoleCodeListOID="ROLES"/>
  <ItemRef ItemOID="SC.SCSTRESU"
  OrderNumber="12"
  Mandatory="No"
  Role="VARIABLE QUALIFIER"
  RoleCodeListOID="ROLES"/>
  <ItemRef ItemOID="SC.SCDTC"
  OrderNumber="13"
  Mandatory="No"
  Role="TIMING"
  RoleCodeListOID="ROLES"/>
  <ItemRef ItemOID="SC.SCDY"
  OrderNumber="14"
  Mandatory="No"
  Role="TIMING"
  RoleCodeListOID="ROLES"/>
  <def:leaf ID="Location.SC" xlink:href="sc.parquet">
  <def:title>sc.parquet</def:title>
  </def:leaf>
</ItemGroupDef>
<ItemGroupDef OID="VS"
  Name="VS"
  Repeating="Yes"
  IsReferenceData="No"
  Purpose="Tabulation"
  def:Label="Vital Signs"
  def:Structure="One record per vital sign measurement per time point per visit per subject"
  def:DomainKeys="STUDYID, USUBJID, VSTESTCD, VISITNUM, VSTPTNUM"
  def:Class="Findings"
  def:ArchiveLocationID="Location.VS">
  <ItemRef ItemOID="VS.STUDYID"
  OrderNumber="1"
  Mandatory="Yes"
  Role="IDENTIFIER"
  RoleCodeListOID="ROLES"/>
  <ItemRef ItemOID="VS.DOMAIN"
  OrderNumber="2"
  Mandatory="Yes"
  Role="IDENTIFIER"
  RoleCodeListOID="ROLES"/>
  <ItemRef ItemOID="VS.USUBJID"
  OrderNumber="3"
  Mandatory="Yes"
  Role="IDENTIFIER"
  RoleCodeListOID="ROLES"/>
  <ItemRef ItemOID="VS.VSSEQ"
  OrderNumber="4"
  Mandatory="Yes"
  Role="IDENTIFIER"
  RoleCodeListOID="ROLES"/>
  <ItemRef ItemOID="VS.VSTESTCD"
  OrderNumber="5"
  Mandatory="Yes"
  Role="TOPIC"
  RoleCodeListOID="ROLES"/>
  <ItemRef ItemOID="VS.VSTEST"
  OrderNumber="6"
  Mandatory="Yes"
  Role="SYNONYM QUALIFIER"
  RoleCodeListOID="ROLES"/>
  <ItemRef ItemOID="VS.VSPOS"
  OrderNumber="7"
  Mandatory="No"
  Role="RECORD QUALIFIER"
  RoleCodeListOID="ROLES"/>
  <ItemRef ItemOID="VS.VSORRES"
  OrderNumber="8"
  Mandatory="No"
  Role="RESULT QUALIFIER"
  RoleCodeListOID="ROLES"/>
  <ItemRef ItemOID="VS.VSORRESU"
  OrderNumber="9"
  Mandatory="No"
  Role="VARIABLE QUALIFIER"
  RoleCodeListOID="ROLES"/>
  <ItemRef ItemOID="VS.VSSTRESC"
  OrderNumber="10"
  Mandatory="No"
  Role="RESULT QUALIFIER"
  RoleCodeListOID="ROLES"/>
  <ItemRef ItemOID="VS.VSSTRESN"
  OrderNumber="11"
  Mandatory="No"
  Role="RESULT QUALIFIER"
  RoleCodeListOID="ROLES"/>
  <ItemRef ItemOID="VS.VSSTRESU"
  OrderNumber="12"
  Mandatory="No"
  Role="VARIABLE QUALIFIER"
  RoleCodeListOID="ROLES"/>
  <ItemRef ItemOID="VS.VSSTAT"
  OrderNumber="13"
  Mandatory="No"
  Role="RECORD QUALIFIER"
  RoleCodeListOID="ROLES"/>
  <ItemRef ItemOID="VS.VSLOC"
  OrderNumber="14"
  Mandatory="No"
  Role="RECORD QUALIFIER"
  RoleCodeListOID="ROLES"/>
  <ItemRef ItemOID="VS.VSBLFL"
  OrderNumber="15"
  Mandatory="No"
  Role="RECORD QUALIFIER"
  RoleCodeListOID="ROLES"/>
  <ItemRef ItemOID="VS.VISITNUM"
  OrderNumber="16"
  Mandatory="No"
  Role="TIMING"
  RoleCodeListOID="ROLES"/>
  <ItemRef ItemOID="VS.VISIT"
  OrderNumber="17"
  Mandatory="No"
  Role="TIMING"
  RoleCodeListOID="ROLES"/>
  <ItemRef ItemOID="VS.VISITDY"
  OrderNumber="18"
  Mandatory="No"
  Role="TIMING"
  RoleCodeListOID="ROLES"/>
  <ItemRef ItemOID="VS.VSDTC"
  OrderNumber="19"
  Mandatory="No"
  Role="TIMING"
  RoleCodeListOID="ROLES"/>
  <ItemRef ItemOID="VS.VSDY"
  OrderNumber="20"
  Mandatory="No"
  Role="TIMING"
  RoleCodeListOID="ROLES"/>
  <ItemRef ItemOID="VS.VSTPT"
  OrderNumber="21"
  Mandatory="No"
  Role="TIMING"
  RoleCodeListOID="ROLES"/>
  <ItemRef ItemOID="VS.VSTPTNUM"
  OrderNumber="22"
  Mandatory="No"
  Role="TIMING"
  RoleCodeListOID="ROLES"/>
  <ItemRef ItemOID="VS.VSELTM"
  OrderNumber="23"
  Mandatory="No"
  Role="TIMING"
  RoleCodeListOID="ROLES"/>
  <ItemRef ItemOID="VS.VSTPTREF"
  OrderNumber="24"
  Mandatory="No"
  Role="TIMING"
  RoleCodeListOID="ROLES"/>
  <def:leaf ID="Location.VS" xlink:href="vs.parquet">
  <def:title>vs.parquet</def:title>
  </def:leaf>
</ItemGroupDef>
<ItemGroupDef OID="RELREC"
  Name="RELREC"
  Repeating="Yes"
  IsReferenceData="No"
  Purpose="Tabulation"
  def:Label="Related Records"
  def:Structure="One record per related record, group of records or datasets"
  def:DomainKeys="STUDYID, RDOMAIN, USUBJID, IDVAR, IDVARVAL, RELID, RELTYPE"
  def:Class="Relationship"
  def:ArchiveLocationID="Location.RELREC">
  <ItemRef ItemOID="RELREC.STUDYID"
  OrderNumber="1"
  Mandatory="Yes"
  Role="IDENTIFIER"
  RoleCodeListOID="ROLES"/>
  <ItemRef ItemOID="RELREC.RDOMAIN"
  OrderNumber="2"
  Mandatory="Yes"
  Role="IDENTIFIER"
  RoleCodeListOID="ROLES"/>
  <ItemRef ItemOID="RELREC.USUBJID"
  OrderNumber="3"
  Mandatory="No"
  Role="IDENTIFIER"
  RoleCodeListOID="ROLES"/>
  <ItemRef ItemOID="RELREC.IDVAR"
  OrderNumber="4"
  Mandatory="Yes"
  Role="IDENTIFIER"
  RoleCodeListOID="ROLES"/>
  <ItemRef ItemOID="RELREC.IDVARVAL"
  OrderNumber="5"
  Mandatory="No"
  Role="IDENTIFIER"
  RoleCodeListOID="ROLES"/>
  <ItemRef ItemOID="RELREC.RELTYPE"
  OrderNumber="6"
  Mandatory="No"
  Role="RESULT QUALIFIER"
  RoleCodeListOID="ROLES"/>
  <ItemRef ItemOID="RELREC.RELID"
  OrderNumber="7"
  Mandatory="Yes"
  Role="TOPIC"
  RoleCodeListOID="ROLES"/>
  <def:leaf ID="Location.RELREC" xlink:href="relrec.parquet">
  <def:title>relrec.parquet</def:title>
  </def:leaf>
</ItemGroupDef>
<ItemGroupDef OID="SUPPAE"
  Name="SUPPAE"
  Repeating="Yes"
  IsReferenceData="No"
  Purpose="Tabulation"
  def:Label="Supplemental Qualifiers for AE"
  def:Structure="One record per IDVAR, IDVARVAL, and QNAM value per subject"
  def:DomainKeys="STUDYID, RDOMAIN, USUBJID, IDVAR, IDVARVAL, QNAM"
  def:Class="Relationship"
  def:ArchiveLocationID="Location.SUPPAE">
  <ItemRef ItemOID="SUPPAE.STUDYID"
  OrderNumber="1"
  Mandatory="Yes"
  Role="IDENTIFIER"
  RoleCodeListOID="ROLES"/>
  <ItemRef ItemOID="SUPPAE.RDOMAIN"
  OrderNumber="2"
  Mandatory="Yes"
  Role="IDENTIFIER"
  RoleCodeListOID="ROLES"/>
  <ItemRef ItemOID="SUPPAE.USUBJID"
  OrderNumber="3"
  Mandatory="Yes"
  Role="IDENTIFIER"
  RoleCodeListOID="ROLES"/>
  <ItemRef ItemOID="SUPPAE.IDVAR"
  OrderNumber="4"
  Mandatory="No"
  Role="IDENTIFIER"
  RoleCodeListOID="ROLES"/>
  <ItemRef ItemOID="SUPPAE.IDVARVAL"
  OrderNumber="5"
  Mandatory="No"
  Role="IDENTIFIER"
  RoleCodeListOID="ROLES"/>
  <ItemRef ItemOID="SUPPAE.QNAM"
  OrderNumber="6"
  Mandatory="Yes"
  Role="TOPIC"
  RoleCodeListOID="ROLES"/>
  <ItemRef ItemOID="SUPPAE.QLABEL"
  OrderNumber="7"
  Mandatory="Yes"
  Role="SYNONYM QUALIFIER"
  RoleCodeListOID="ROLES"/>
  <ItemRef ItemOID="SUPPAE.QVAL"
  OrderNumber="8"
  Mandatory="Yes"
  Role="RESULT"
  RoleCodeListOID="ROLES"/>
  <ItemRef ItemOID="SUPPAE.QORIG"
  OrderNumber="9"
  Mandatory="Yes"
  Role="RESULT QUALIFIER"
  RoleCodeListOID="ROLES"/>
  <ItemRef ItemOID="SUPPAE.QEVAL"
  OrderNumber="10"
  Mandatory="No"
  Role="RESULT QUALIFIER"
  RoleCodeListOID="ROLES"/>
  <def:leaf ID="Location.SUPPAE" xlink:href="suppae.parquet">
  <def:title>suppae.parquet</def:title>
  </def:leaf>
</ItemGroupDef>
<ItemGroupDef OID="SUPPDM"
  Name="SUPPDM"
  Repeating="Yes"
  IsReferenceData="No"
  Purpose="Tabulation"
  def:Label="Supplemental Qualifiers for DM"
  def:Structure="One record per IDVAR, IDVARVAL, and QNAM value per subject"
  def:DomainKeys="STUDYID, RDOMAIN, USUBJID, IDVAR, IDVARVAL, QNAM"
  def:Class="Relationship"
  def:ArchiveLocationID="Location.SUPPDM">
  <ItemRef ItemOID="SUPPDM.STUDYID"
  OrderNumber="1"
  Mandatory="Yes"
  Role="IDENTIFIER"
  RoleCodeListOID="ROLES"/>
  <ItemRef ItemOID="SUPPDM.RDOMAIN"
  OrderNumber="2"
  Mandatory="Yes"
  Role="IDENTIFIER"
  RoleCodeListOID="ROLES"/>
  <ItemRef ItemOID="SUPPDM.USUBJID"
  OrderNumber="3"
  Mandatory="Yes"
  Role="IDENTIFIER"
  RoleCodeListOID="ROLES"/>
  <ItemRef ItemOID="SUPPDM.IDVAR"
  OrderNumber="4"
  Mandatory="No"
  Role="IDENTIFIER"
  RoleCodeListOID="ROLES"/>
  <ItemRef ItemOID="SUPPDM.IDVARVAL"
  OrderNumber="5"
  Mandatory="No"
  Role="IDENTIFIER"
  RoleCodeListOID="ROLES"/>
  <ItemRef ItemOID="SUPPDM.QNAM"
  OrderNumber="6"
  Mandatory="Yes"
  Role="TOPIC"
  RoleCodeListOID="ROLES"/>
  <ItemRef ItemOID="SUPPDM.QLABEL"
  OrderNumber="7"
  Mandatory="Yes"
  Role="SYNONYM QUALIFIER"
  RoleCodeListOID="ROLES"/>
  <ItemRef ItemOID="SUPPDM.QVAL"
  OrderNumber="8"
  Mandatory="Yes"
  Role="RESULT"
  RoleCodeListOID="ROLES"/>
  <ItemRef ItemOID="SUPPDM.QORIG"
  OrderNumber="9"
  Mandatory="Yes"
  Role="RESULT QUALIFIER"
  RoleCodeListOID="ROLES"/>
  <ItemRef ItemOID="SUPPDM.QEVAL"
  OrderNumber="10"
  Mandatory="No"
  Role="RESULT QUALIFIER"
  RoleCodeListOID="ROLES"/>
  <def:leaf ID="Location.SUPPDM" xlink:href="suppdm.parquet">
  <def:title>suppdm.parquet</def:title>
  </def:leaf>
</ItemGroupDef>
<ItemGroupDef OID="SUPPDS"
  Name="SUPPDS"
  Repeating="Yes"
  IsReferenceData="No"
  Purpose="Tabulation"
  def:Label="Supplemental Qualifiers for DS"
  def:Structure="One record per IDVAR, IDVARVAL, and QNAM value per subject"
  def:DomainKeys="STUDYID, RDOMAIN, USUBJID, IDVAR, IDVARVAL, QNAM"
  def:Class="Relationship"
  def:ArchiveLocationID="Location.SUPPDS">
  <ItemRef ItemOID="SUPPDS.STUDYID"
  OrderNumber="1"
  Mandatory="Yes"
  Role="IDENTIFIER"
  RoleCodeListOID="ROLES"/>
  <ItemRef ItemOID="SUPPDS.RDOMAIN"
  OrderNumber="2"
  Mandatory="Yes"
  Role="IDENTIFIER"
  RoleCodeListOID="ROLES"/>
  <ItemRef ItemOID="SUPPDS.USUBJID"
  OrderNumber="3"
  Mandatory="Yes"
  Role="IDENTIFIER"
  RoleCodeListOID="ROLES"/>
  <ItemRef ItemOID="SUPPDS.IDVAR"
  OrderNumber="4"
  Mandatory="No"
  Role="IDENTIFIER"
  RoleCodeListOID="ROLES"/>
  <ItemRef ItemOID="SUPPDS.IDVARVAL"
  OrderNumber="5"
  Mandatory="No"
  Role="IDENTIFIER"
  RoleCodeListOID="ROLES"/>
  <ItemRef ItemOID="SUPPDS.QNAM"
  OrderNumber="6"
  Mandatory="Yes"
  Role="TOPIC"
  RoleCodeListOID="ROLES"/>
  <ItemRef ItemOID="SUPPDS.QLABEL"
  OrderNumber="7"
  Mandatory="Yes"
  Role="SYNONYM QUALIFIER"
  RoleCodeListOID="ROLES"/>
  <ItemRef ItemOID="SUPPDS.QVAL"
  OrderNumber="8"
  Mandatory="Yes"
  Role="RESULT"
  RoleCodeListOID="ROLES"/>
  <ItemRef ItemOID="SUPPDS.QORIG"
  OrderNumber="9"
  Mandatory="Yes"
  Role="RESULT QUALIFIER"
  RoleCodeListOID="ROLES"/>
  <ItemRef ItemOID="SUPPDS.QEVAL"
  OrderNumber="10"
  Mandatory="No"
  Role="RESULT QUALIFIER"
  RoleCodeListOID="ROLES"/>
  <def:leaf ID="Location.SUPPDS" xlink:href="suppds.parquet">
  <def:title>suppds.parquet</def:title>
  </def:leaf>
</ItemGroupDef>
<ItemGroupDef OID="SUPPLB"
  Name="SUPPLB"
  Repeating="Yes"
  IsReferenceData="No"
  Purpose="Tabulation"
  def:Label="Supplemental Qualifiers for LB"
  def:Structure="One record per IDVAR, IDVARVAL, and QNAM value per subject"
  def:DomainKeys="STUDYID, RDOMAIN, USUBJID, IDVAR, IDVARVAL, QNAM"
  def:Class="Relationship"
  def:ArchiveLocationID="Location.SUPPLB">
  <ItemRef ItemOID="SUPPLB.STUDYID"
  OrderNumber="1"
  Mandatory="Yes"
  Role="IDENTIFIER"
  RoleCodeListOID="ROLES"/>
  <ItemRef ItemOID="SUPPLB.RDOMAIN"
  OrderNumber="2"
  Mandatory="Yes"
  Role="IDENTIFIER"
  RoleCodeListOID="ROLES"/>
  <ItemRef ItemOID="SUPPLB.USUBJID"
  OrderNumber="3"
  Mandatory="Yes"
  Role="IDENTIFIER"
  RoleCodeListOID="ROLES"/>
  <ItemRef ItemOID="SUPPLB.IDVAR"
  OrderNumber="4"
  Mandatory="No"
  Role="IDENTIFIER"
  RoleCodeListOID="ROLES"/>
  <ItemRef ItemOID="SUPPLB.IDVARVAL"
  OrderNumber="5"
  Mandatory="No"
  Role="IDENTIFIER"
  RoleCodeListOID="ROLES"/>
  <ItemRef ItemOID="SUPPLB.QNAM"
  OrderNumber="6"
  Mandatory="Yes"
  Role="TOPIC"
  RoleCodeListOID="ROLES"/>
  <ItemRef ItemOID="SUPPLB.QLABEL"
  OrderNumber="7"
  Mandatory="Yes"
  Role="SYNONYM QUALIFIER"
  RoleCodeListOID="ROLES"/>
  <ItemRef ItemOID="SUPPLB.QVAL"
  OrderNumber="8"
  Mandatory="Yes"
  Role="RESULT"
  RoleCodeListOID="ROLES"/>
  <ItemRef ItemOID="SUPPLB.QORIG"
  OrderNumber="9"
  Mandatory="Yes"
  Role="RESULT QUALIFIER"
  RoleCodeListOID="ROLES"/>
  <ItemRef ItemOID="SUPPLB.QEVAL"
  OrderNumber="10"
  Mandatory="No"
  Role="RESULT QUALIFIER"
  RoleCodeListOID="ROLES"/>
  <def:leaf ID="Location.SUPPLB" xlink:href="supplb.parquet">
  <def:title>supplb.parquet</def:title>
  </def:leaf>
</ItemGroupDef>
<ItemDef OID="AE.STUDYID"
  Name="STUDYID"
  DataType="text"
  Length="12"
  Origin="CRF Page 7"
  Comment=" "
  def:Label="Study Identifier"
/>
<ItemDef OID="AE.DOMAIN"
  Name="DOMAIN"
  DataType="text"
  Length="2"
  Origin="Assigned"
  Comment=" "
  def:Label="Domain Abbreviation"
/>
<ItemDef OID="AE.USUBJID"
  Name="USUBJID"
  DataType="text"
  Length="11"
  Origin="Derived"
  Comment="Concatenation of STUDYID, DM.SITEID and DM.SUBJID"
  def:Label="Unique Subject Identifier"
/>
<ItemDef OID="AE.AESEQ"
  Name="AESEQ"
  DataType="integer"
  Length="8"
  Origin="Derived"
  Comment="Sequential number identifying records within each USUBJID"
  def:Label="Sequence Number"
/>
<ItemDef OID="AE.AESPID"
  Name="AESPID"
  DataType="text"
  Length="3"
  Origin="CRF Page 121, 122, 123"
  Comment=" "
  def:Label="Sponsor-Defined Identifier"
/>
<ItemDef OID="AE.AETERM"
  Name="AETERM"
  DataType="text"
  Length="200"
  Origin="CRF Page 121, 122, 123"
  Comment=" "
  def:Label="Reported Term for the Adverse Event"
/>
<ItemDef OID="AE.AELLT"
  Name="AELLT"
  DataType="text"
  Length="100"
  Origin="Assigned"
  Comment=" "
  def:Label="Lowest Level Term"
  >
  <CodeListRef CodeListOID="AEDICT"/>
</ItemDef>
<ItemDef OID="AE.AELLTCD"
  Name="AELLTCD"
  DataType="integer"
  Length="8"
  Origin="Assigned"
  Comment=" "
  def:Label="Lowest Level Term Code"
/>
<ItemDef OID="AE.AEDECOD"
  Name="AEDECOD"
  DataType="text"
  Length="200"
  Origin="Assigned"
  Comment=" "
  def:Label="Dictionary-Derived Term"
  >
  <CodeListRef CodeListOID="AEDICT"/>
</ItemDef>
<ItemDef OID="AE.AEPTCD"
  Name="AEPTCD"
  DataType="integer"
  Length="8"
  Origin="Assigned"
  Comment=" "
  def:Label="Preferred Term Code"
/>
<ItemDef OID="AE.AEHLT"
  Name="AEHLT"
  DataType="text"
  Length="100"
  Origin="Assigned"
  Comment=" "
  def:Label="High Level Term"
  >
  <CodeListRef CodeListOID="AEDICT"/>
</ItemDef>
<ItemDef OID="AE.AEHLTCD"
  Name="AEHLTCD"
  DataType="integer"
  Length="8"
  Origin="Assigned"
  Comment=" "
  def:Label="High Level Term Code"
/>
<ItemDef OID="AE.AEHLGT"
  Name="AEHLGT"
  DataType="text"
  Length="100"
  Origin="Assigned"
  Comment=" "
  def:Label="High Level Group Term"
  >
  <CodeListRef CodeListOID="AEDICT"/>
</ItemDef>
<ItemDef OID="AE.AEHLGTCD"
  Name="AEHLGTCD"
  DataType="integer"
  Length="8"
  Origin="Assigned"
  Comment=" "
  def:Label="High Level Group Term Code"
/>
<ItemDef OID="AE.AEBODSYS"
  Name="AEBODSYS"
  DataType="text"
  Length="67"
  Origin="Assigned"
  Comment=" "
  def:Label="Body System or Organ Class"
  >
  <CodeListRef CodeListOID="AEDICT"/>
</ItemDef>
<ItemDef OID="AE.AEBDSYCD"
  Name="AEBDSYCD"
  DataType="integer"
  Length="8"
  Origin="Assigned"
  Comment=" "
  def:Label="Body System or Organ Class Code"
/>
<ItemDef OID="AE.AESOC"
  Name="AESOC"
  DataType="text"
  Length="100"
  Origin="Assigned"
  Comment=" "
  def:Label="Primary System Organ Class"
  >
  <CodeListRef CodeListOID="AEDICT"/>
</ItemDef>
<ItemDef OID="AE.AESOCCD"
  Name="AESOCCD"
  DataType="integer"
  Length="8"
  Origin="Assigned"
  Comment=" "
  def:Label="Primary System Organ Class Code"
/>
<ItemDef OID="AE.AESEV"
  Name="AESEV"
  DataType="text"
  Length="8"
  Origin="CRF Page 121, 122, 123"
  Comment=" "
  def:Label="Severity/Intensity"
  >
  <CodeListRef CodeListOID="SEV"/>
</ItemDef>
<ItemDef OID="AE.AESER"
  Name="AESER"
  DataType="text"
  Length="1"
  Origin="CRF Page 121, 122, 123"
  Comment=" "
  def:Label="Serious Event"
  >
  <CodeListRef CodeListOID="YN"/>
</ItemDef>
<ItemDef OID="AE.AEACN"
  Name="AEACN"
  DataType="text"
  Length="30"
  Origin="Derived"
  Comment="AEACN=Null (data on action taken concerning study treatment was not collected)"
  def:Label="Action Taken with Study Treatment"
/>
<ItemDef OID="AE.AEREL"
  Name="AEREL"
  DataType="text"
  Length="8"
  Origin="CRF Page 121, 122, 123"
  Comment=" "
  def:Label="Causality"
  >
  <CodeListRef CodeListOID="AECAUS"/>
</ItemDef>
<ItemDef OID="AE.AEOUT"
  Name="AEOUT"
  DataType="text"
  Length="200"
  Origin="CRF Page 121, 122, 123"
  Comment=" "
  def:Label="Outcome of Adverse Event"
  >
  <CodeListRef CodeListOID="OUT"/>
</ItemDef>
<ItemDef OID="AE.AESCAN"
  Name="AESCAN"
  DataType="text"
  Length="1"
  Origin="CRF Page 121, 122, 123"
  Comment=" "
  def:Label="Involves Cancer"
  >
  <CodeListRef CodeListOID="YN"/>
</ItemDef>
<ItemDef OID="AE.AESCONG"
  Name="AESCONG"
  DataType="text"
  Length="1"
  Origin="CRF Page 121, 122, 123"
  Comment=" "
  def:Label="Congenital Anomaly or Birth Defect"
  >
  <CodeListRef CodeListOID="YN"/>
</ItemDef>
<ItemDef OID="AE.AESDISAB"
  Name="AESDISAB"
  DataType="text"
  Length="1"
  Origin="CRF Page 121, 122, 123"
  Comment=" "
  def:Label="Persist or Signif Disability/Incapacity"
  >
  <CodeListRef CodeListOID="YN"/>
</ItemDef>
<ItemDef OID="AE.AESDTH"
  Name="AESDTH"
  DataType="text"
  Length="1"
  Origin="CRF Page 121, 122, 123"
  Comment=" "
  def:Label="Results in Death"
  >
  <CodeListRef CodeListOID="YN"/>
</ItemDef>
<ItemDef OID="AE.AESHOSP"
  Name="AESHOSP"
  DataType="text"
  Length="1"
  Origin="CRF Page 121, 122, 123"
  Comment=" "
  def:Label="Requires or Prolongs Hospitalization"
  >
  <CodeListRef CodeListOID="YN"/>
</ItemDef>
<ItemDef OID="AE.AESLIFE"
  Name="AESLIFE"
  DataType="text"
  Length="1"
  Origin="CRF Page 121, 122, 123"
  Comment=" "
  def:Label="Is Life Threatening"
  >
  <CodeListRef CodeListOID="YN"/>
</ItemDef>
<ItemDef OID="AE.AESOD"
  Name="AESOD"
  DataType="text"
  Length="1"
  Origin="CRF Page 121, 122, 123"
  Comment=" "
  def:Label="Occurred with Overdose"
  >
  <CodeListRef CodeListOID="YN"/>
</ItemDef>
<ItemDef OID="AE.AEDTC"
  Name="AEDTC"
  DataType="date"
  Length="10"
  Origin="Derived"
  Comment="Date of final visit (SV)"
  def:Label="Date/Time of Collection"
/>
<ItemDef OID="AE.AESTDTC"
  Name="AESTDTC"
  DataType="date"
  Length="10"
  Origin="CRF Page 121, 122, 123"
  Comment=" "
  def:Label="Start Date/Time of Adverse Event"
/>
<ItemDef OID="AE.AEENDTC"
  Name="AEENDTC"
  DataType="date"
  Length="10"
  Origin="CRF Page 121, 122, 123"
  Comment=" "
  def:Label="End Date/Time of Adverse Event"
/>
<ItemDef OID="AE.AESTDY"
  Name="AESTDY"
  DataType="integer"
  Length="8"
  Origin="Derived"
  def:Label="Study Day of Start of Adverse Event"
  def:ComputationMethodOID="COMPMETHOD.STUDY_DAY"
/>
<ItemDef OID="AE.AEENDY"
  Name="AEENDY"
  DataType="integer"
  Length="8"
  Origin="Derived"
  def:Label="Study Day of End of Adverse Event"
  def:ComputationMethodOID="COMPMETHOD.STUDY_DAY"
/>
<ItemDef OID="CM.STUDYID"
  Name="STUDYID"
  DataType="text"
  Length="12"
  Origin="CRF Page 7"
  Comment=" "
  def:Label="Study Identifier"
/>
<ItemDef OID="CM.DOMAIN"
  Name="DOMAIN"
  DataType="text"
  Length="2"
  Origin="Assigned"
  Comment=" "
  def:Label="Domain Abbreviation"
/>
<ItemDef OID="CM.USUBJID"
  Name="USUBJID"
  DataType="text"
  Length="11"
  Origin="Derived"
  Comment="Concatenation of STUDYID, DM.SITEID and DM.SUBJID"
  def:Label="Unique Subject Identifier"
/>
<ItemDef OID="CM.CMSEQ"
  Name="CMSEQ"
  DataType="integer"
  Length="8"
  Origin="Derived"
  Comment="Sequential number identifying records within each USUBJID"
  def:Label="Sequence Number"
/>
<ItemDef OID="CM.CMSPID"
  Name="CMSPID"
  DataType="text"
  Length="2"
  Origin="Assigned"
  Comment=" "
  def:Label="Sponsor-Defined Identifier"
/>
<ItemDef OID="CM.CMTRT"
  Name="CMTRT"
  DataType="text"
  Length="44"
  Origin="CRF Page 124, 125, 126"
  Comment=" "
  def:Label="Reported Name of Drug, Med, or Therapy"
/>
<ItemDef OID="CM.CMDECOD"
  Name="CMDECOD"
  DataType="text"
  Length="24"
  Origin="Assigned"
  Comment=" "
  def:Label="Standardized Medication Name"
  >
  <CodeListRef CodeListOID="DRUGDICT"/>
</ItemDef>
<ItemDef OID="CM.CMINDC"
  Name="CMINDC"
  DataType="text"
  Length="34"
  Origin="CRF Page 124, 125, 126"
  Comment=" "
  def:Label="Indication"
/>
<ItemDef OID="CM.CMCLAS"
  Name="CMCLAS"
  DataType="text"
  Length="42"
  Origin="Assigned"
  Comment="ATC Level 1"
  def:Label="Medication Class"
  >
  <CodeListRef CodeListOID="DRUGDICT"/>
</ItemDef>
<ItemDef OID="CM.CMDOSE"
  Name="CMDOSE"
  DataType="integer"
  Length="8"
  Origin="CRF Page 124, 125, 126"
  Comment=" "
  def:Label="Dose per Administration"
/>
<ItemDef OID="CM.CMDOSU"
  Name="CMDOSU"
  DataType="text"
  Length="17"
  Origin="CRF Page 124, 125, 126"
  Comment=" "
  def:Label="Dose Units"
/>
<ItemDef OID="CM.CMDOSFRQ"
  Name="CMDOSFRQ"
  DataType="text"
  Length="15"
  Origin="CRF Page 124, 125, 126"
  Comment=" "
  def:Label="Dosing Frequency per Interval"
  >
  <CodeListRef CodeListOID="CMFREQ"/>
</ItemDef>
<ItemDef OID="CM.CMROUTE"
  Name="CMROUTE"
  DataType="text"
  Length="200"
  Origin="CRF Page 124, 125, 126"
  Comment=" "
  def:Label="Route of Administration"
  >
  <CodeListRef CodeListOID="CMROUTE"/>
</ItemDef>
<ItemDef OID="CM.VISITNUM"
  Name="VISITNUM"
  DataType="float"
  Length="8"
  SignificantDigits="1"
  Origin="CRF Page 124, 125, 126"
  Comment=" "
  def:Label="Visit Number"
  def:DisplayFormat="8.1"
  >
  <CodeListRef CodeListOID="VISITNUM"/>
</ItemDef>
<ItemDef OID="CM.VISIT"
  Name="VISIT"
  DataType="text"
  Length="19"
  Origin="CRF Page 124, 125, 126"
  Comment=" "
  def:Label="Visit Name"
  >
  <CodeListRef CodeListOID="VISIT"/>
</ItemDef>
<ItemDef OID="CM.VISITDY"
  Name="VISITDY"
  DataType="integer"
  Length="8"
  Origin="Derived"
  Comment="TV.VISITDY"
  def:Label="Planned Study Day of Visit"
/>
<ItemDef OID="CM.CMDTC"
  Name="CMDTC"
  DataType="date"
  Length="10"
  Origin="CRF Page 124, 125, 126"
  Comment=" "
  def:Label="Date/Time of Collection"
/>
<ItemDef OID="CM.CMSTDTC"
  Name="CMSTDTC"
  DataType="date"
  Length="10"
  Origin="CRF Page 124, 125, 126"
  Comment=" "
  def:Label="Start Date/Time of Medication"
/>
<ItemDef OID="CM.CMENDTC"
  Name="CMENDTC"
  DataType="date"
  Length="10"
  Origin="CRF Page 124, 125, 126"
  Comment=" "
  def:Label="End Date/Time of Medication"
/>
<ItemDef OID="CM.CMSTDY"
  Name="CMSTDY"
  DataType="integer"
  Length="8"
  Origin="Derived"
  def:Label="Study Day of Start of Medication"
  def:ComputationMethodOID="COMPMETHOD.STUDY_DAY"
/>
<ItemDef OID="CM.CMENDY"
  Name="CMENDY"
  DataType="integer"
  Length="8"
  Origin="Derived"
  def:Label="Study Day of End of Medication"
  def:ComputationMethodOID="COMPMETHOD.STUDY_DAY"
/>
<ItemDef OID="DM.STUDYID"
  Name="STUDYID"
  DataType="text"
  Length="12"
  Origin="CRF Page 7"
  Comment=" "
  def:Label="Study Identifier"
/>
<ItemDef OID="DM.DOMAIN"
  Name="DOMAIN"
  DataType="text"
  Length="2"
  Origin="Assigned"
  Comment=" "
  def:Label="Domain Abbreviation"
/>
<ItemDef OID="DM.USUBJID"
  Name="USUBJID"
  DataType="text"
  Length="11"
  Origin="Derived"
  Comment="Concatenation of STUDYID, DM.SITEID and DM.SUBJID"
  def:Label="Unique Subject Identifier"
/>
<ItemDef OID="DM.SUBJID"
  Name="SUBJID"
  DataType="text"
  Length="4"
  Origin="CRF Page 7"
  Comment=" "
  def:Label="Subject Identifier for the Study"
/>
<ItemDef OID="DM.RFSTDTC"
  Name="RFSTDTC"
  DataType="date"
  Length="10"
  Origin="Derived"
  Comment="Date/time of first study drug treatment derived from EX"
  def:Label="Subject Reference Start Date/Time"
/>
<ItemDef OID="DM.RFENDTC"
  Name="RFENDTC"
  DataType="date"
  Length="10"
  Origin="Derived"
  Comment="Date/time of last study drug treatment derived from EX"
  def:Label="Subject Reference End Date/Time"
/>
<ItemDef OID="DM.RFXSTDTC"
  Name="RFXSTDTC"
  DataType="datetime"
  Length="20"
  Origin="Derived"
  Comment="RFXSTDTC=RFSTDTC"
  def:Label="Date/Time of First Study Treatment"
/>
<ItemDef OID="DM.RFXENDTC"
  Name="RFXENDTC"
  DataType="datetime"
  Length="20"
  Origin="Derived"
  Comment="RFXENDTC=RFENDTC"
  def:Label="Date/Time of Last Study Treatment"
/>
<ItemDef OID="DM.RFICDTC"
  Name="RFICDTC"
  DataType="datetime"
  Length="20"
  Origin="Derived"
  Comment="Date of informed consent was not entered in database (see annotated CRF)"
  def:Label="Date/Time of Informed Consent"
/>
<ItemDef OID="DM.RFPENDTC"
  Name="RFPENDTC"
  DataType="datetime"
  Length="20"
  Origin="Derived"
  Comment="DSSTDTC of last disposition event"
  def:Label="Date/Time of End of Participation"
/>
<ItemDef OID="DM.DTHDTC"
  Name="DTHDTC"
  DataType="datetime"
  Length="20"
  Origin="Derived"
  Comment="If DS record exists with DSDECOD=&quot;DEATH&quot; then DTHDTC=AEENDTC."
  def:Label="Date/Time of Death"
/>
<ItemDef OID="DM.DTHFL"
  Name="DTHFL"
  DataType="text"
  Length="1"
  Origin="Derived"
  Comment="If DS record exists with DSDECOD=&quot;DEATH&quot; then DEATHFL=Y."
  def:Label="Subject Death Flag"
  >
  <CodeListRef CodeListOID="Y_BLANK"/>
</ItemDef>
<ItemDef OID="DM.SITEID"
  Name="SITEID"
  DataType="text"
  Length="3"
  Origin="Assigned"
  Comment=" "
  def:Label="Study Site Identifier"
/>
<ItemDef OID="DM.AGE"
  Name="AGE"
  DataType="integer"
  Length="8"
  Origin="Derived"
  Comment="Subject&apos;s Age at start of study drug (RFSTDTC)."
  def:Label="Age"
/>
<ItemDef OID="DM.AGEU"
  Name="AGEU"
  DataType="text"
  Length="6"
  Origin="Assigned"
  Comment="AGEU=&quot;YEARS&quot;"
  def:Label="Age Units"
  >
  <CodeListRef CodeListOID="AGEU"/>
</ItemDef>
<ItemDef OID="DM.SEX"
  Name="SEX"
  DataType="text"
  Length="1"
  Origin="CRF Page 7"
  Comment=" "
  def:Label="Sex"
  >
  <CodeListRef CodeListOID="SEX"/>
</ItemDef>
<ItemDef OID="DM.RACE"
  Name="RACE"
  DataType="text"
  Length="78"
  Origin="CRF Page 7"
  Comment=" "
  def:Label="Race"
  >
  <CodeListRef CodeListOID="RACE"/>
</ItemDef>
<ItemDef OID="DM.ETHNIC"
  Name="ETHNIC"
  DataType="text"
  Length="25"
  Origin="Derived"
  Comment="Derived from Origin entered on CRF: ETHINC=&quot;HISPANIC OR LATINO&quot; if Origin=&quot;Hispanic&quot;. Otherwise ETHNIC=&quot;NOT HISPANIC OR LATINO&quot;"
  def:Label="Ethnicity"
  >
  <CodeListRef CodeListOID="ETHNIC"/>
</ItemDef>
<ItemDef OID="DM.ARMCD"
  Name="ARMCD"
  DataType="text"
  Length="8"
  Origin="Assigned"
  Comment="According to randomization list"
  def:Label="Planned Arm Code"
  >
  <CodeListRef CodeListOID="ARMCD"/>
</ItemDef>
<ItemDef OID="DM.ARM"
  Name="ARM"
  DataType="text"
  Length="20"
  Origin="Assigned"
  Comment="According to randomization list"
  def:Label="Description of Planned Arm"
  >
  <CodeListRef CodeListOID="ARM"/>
</ItemDef>
<ItemDef OID="DM.ACTARMCD"
  Name="ACTARMCD"
  DataType="text"
  Length="8"
  Origin="Derived"
  Comment="Derived from EX"
  def:Label="Actual Arm Code"
  >
  <CodeListRef CodeListOID="ARMCD"/>
</ItemDef>
<ItemDef OID="DM.ACTARM"
  Name="ACTARM"
  DataType="text"
  Length="20"
  Origin="Derived"
  Comment="Derived from EX"
  def:Label="Description of Actual Arm"
  >
  <CodeListRef CodeListOID="ARM"/>
</ItemDef>
<ItemDef OID="DM.COUNTRY"
  Name="COUNTRY"
  DataType="text"
  Length="3"
  Origin="Derived"
  Comment="Derived from site information"
  def:Label="Country"
  >
  <CodeListRef CodeListOID="COUNTRY"/>
</ItemDef>
<ItemDef OID="DM.DMDTC"
  Name="DMDTC"
  DataType="date"
  Length="10"
  Origin="CRF Page 7"
  Comment=" "
  def:Label="Date/Time of Collection"
/>
<ItemDef OID="DM.DMDY"
  Name="DMDY"
  DataType="integer"
  Length="8"
  Origin="Derived"
  def:Label="Study Day of Collection"
  def:ComputationMethodOID="COMPMETHOD.STUDY_DAY"
/>
<ItemDef OID="DS.STUDYID"
  Name="STUDYID"
  DataType="text"
  Length="12"
  Origin="CRF Page 7"
  Comment=" "
  def:Label="Study Identifier"
/>
<ItemDef OID="DS.DOMAIN"
  Name="DOMAIN"
  DataType="text"
  Length="2"
  Origin="Assigned"
  Comment=" "
  def:Label="Domain Abbreviation"
/>
<ItemDef OID="DS.USUBJID"
  Name="USUBJID"
  DataType="text"
  Length="11"
  Origin="Derived"
  Comment="Concatenation of STUDYID, DM.SITEID and DM.SUBJID"
  def:Label="Unique Subject Identifier"
/>
<ItemDef OID="DS.DSSEQ"
  Name="DSSEQ"
  DataType="integer"
  Length="8"
  Origin="Derived"
  Comment="Sequential number identifying records within each USUBJID"
  def:Label="Sequence Number"
/>
<ItemDef OID="DS.DSSPID"
  Name="DSSPID"
  DataType="text"
  Length="2"
  Origin="Assigned"
  Comment=" "
  def:Label="Sponsor-Defined Identifier"
/>
<ItemDef OID="DS.DSTERM"
  Name="DSTERM"
  DataType="text"
  Length="63"
  Origin="CRF Page 106, 139"
  Comment=" "
  def:Label="Reported Term for the Disposition Event"
/>
<ItemDef OID="DS.DSDECOD"
  Name="DSDECOD"
  DataType="text"
  Length="63"
  Origin="CRF Page 106, 139"
  Comment=" "
  def:Label="Standardized Disposition Term"
  >
  <CodeListRef CodeListOID="DISCCD"/>
</ItemDef>
<ItemDef OID="DS.DSCAT"
  Name="DSCAT"
  DataType="text"
  Length="17"
  Origin="Assigned"
  Comment=" "
  def:Label="Category for Disposition Event"
  >
  <CodeListRef CodeListOID="DSCAT"/>
</ItemDef>
<ItemDef OID="DS.VISITNUM"
  Name="VISITNUM"
  DataType="float"
  Length="8"
  SignificantDigits="1"
  Origin="CRF Page 106, 139"
  Comment=" "
  def:Label="Visit Number"
  def:DisplayFormat="8.1"
  >
  <CodeListRef CodeListOID="VISITNUM"/>
</ItemDef>
<ItemDef OID="DS.VISIT"
  Name="VISIT"
  DataType="text"
  Length="19"
  Origin="CRF Page 106, 139"
  Comment=" "
  def:Label="Visit Name"
  >
  <CodeListRef CodeListOID="VISIT"/>
</ItemDef>
<ItemDef OID="DS.DSDTC"
  Name="DSDTC"
  DataType="datetime"
  Length="19"
  Origin="CRF Page 106, 139"
  Comment=" "
  def:Label="Date/Time of Collection"
/>
<ItemDef OID="DS.DSSTDTC"
  Name="DSSTDTC"
  DataType="date"
  Length="10"
  Origin="CRF Page 106, 139"
  Comment=" "
  def:Label="Start Date/Time of Disposition Event"
/>
<ItemDef OID="DS.DSSTDY"
  Name="DSSTDY"
  DataType="integer"
  Length="8"
  Origin="Derived"
  def:Label="Study Day of Start of Disposition Event"
  def:ComputationMethodOID="COMPMETHOD.STUDY_DAY"
/>
<ItemDef OID="EX.STUDYID"
  Name="STUDYID"
  DataType="text"
  Length="12"
  Origin="CRF Page 7"
  Comment=" "
  def:Label="Study Identifier"
/>
<ItemDef OID="EX.DOMAIN"
  Name="DOMAIN"
  DataType="text"
  Length="2"
  Origin="Assigned"
  Comment=" "
  def:Label="Domain Abbreviation"
/>
<ItemDef OID="EX.USUBJID"
  Name="USUBJID"
  DataType="text"
  Length="11"
  Origin="Derived"
  Comment="Concatenation of STUDYID, DM.SITEID and DM.SUBJID"
  def:Label="Unique Subject Identifier"
/>
<ItemDef OID="EX.EXSEQ"
  Name="EXSEQ"
  DataType="integer"
  Length="8"
  Origin="Derived"
  Comment="Sequential number identifying records within each USUBJID"
  def:Label="Sequence Number"
/>
<ItemDef OID="EX.EXTRT"
  Name="EXTRT"
  DataType="text"
  Length="10"
  Origin="eDT"
  Comment=" "
  def:Label="Name of Actual Treatment"
  >
  <CodeListRef CodeListOID="EXTRT"/>
</ItemDef>
<ItemDef OID="EX.EXDOSE"
  Name="EXDOSE"
  DataType="integer"
  Length="8"
  Origin="eDT"
  Comment=" "
  def:Label="Dose per Administration"
/>
<ItemDef OID="EX.EXDOSU"
  Name="EXDOSU"
  DataType="text"
  Length="2"
  Origin="eDT"
  Comment=" "
  def:Label="Dose Units"
  >
  <CodeListRef CodeListOID="EXDOSEU"/>
</ItemDef>
<ItemDef OID="EX.EXDOSFRM"
  Name="EXDOSFRM"
  DataType="text"
  Length="5"
  Origin="eDT"
  Comment=" "
  def:Label="Dose Form"
  >
  <CodeListRef CodeListOID="EXDOSFRM"/>
</ItemDef>
<ItemDef OID="EX.EXDOSFRQ"
  Name="EXDOSFRQ"
  DataType="text"
  Length="2"
  Origin="eDT"
  Comment=" "
  def:Label="Dosing Frequency per Interval"
  >
  <CodeListRef CodeListOID="EXFREQ"/>
</ItemDef>
<ItemDef OID="EX.EXROUTE"
  Name="EXROUTE"
  DataType="text"
  Length="11"
  Origin="eDT"
  Comment=" "
  def:Label="Route of Administration"
  >
  <CodeListRef CodeListOID="EXROUTE"/>
</ItemDef>
<ItemDef OID="EX.VISITNUM"
  Name="VISITNUM"
  DataType="float"
  Length="8"
  SignificantDigits="1"
  Origin="CRF Pages 25, 36, 42, 49, 52, 58, 67, 73, 82, 90, 99, 108, 116, 128"
  Comment=" "
  def:Label="Visit Number"
  def:DisplayFormat="8.1"
  >
  <CodeListRef CodeListOID="VISITNUM"/>
</ItemDef>
<ItemDef OID="EX.VISIT"
  Name="VISIT"
  DataType="text"
  Length="19"
  Origin="CRF Pages 25, 36, 42, 49, 52, 58, 67, 73, 82, 90, 99, 108, 116, 128"
  Comment=" "
  def:Label="Visit Name"
  >
  <CodeListRef CodeListOID="VISIT"/>
</ItemDef>
<ItemDef OID="EX.VISITDY"
  Name="VISITDY"
  DataType="integer"
  Length="8"
  Origin="Derived"
  Comment="TV.VISITDY"
  def:Label="Planned Study Day of Visit"
/>
<ItemDef OID="EX.EXSTDTC"
  Name="EXSTDTC"
  DataType="date"
  Length="10"
  Origin="CRF Pages 25, 36, 42, 49, 52, 58, 67, 73, 82, 90, 99, 108, 116, 128"
  Comment=" "
  def:Label="Start Date/Time of Treatment"
/>
<ItemDef OID="EX.EXENDTC"
  Name="EXENDTC"
  DataType="date"
  Length="10"
  Origin="CRF Page 105, 138"
  Comment=" "
  def:Label="End Date/Time of Treatment"
/>
<ItemDef OID="EX.EXSTDY"
  Name="EXSTDY"
  DataType="integer"
  Length="8"
  Origin="Derived"
  def:Label="Study Day of Start of Treatment"
  def:ComputationMethodOID="COMPMETHOD.STUDY_DAY"
/>
<ItemDef OID="EX.EXENDY"
  Name="EXENDY"
  DataType="integer"
  Length="8"
  Origin="Derived"
  def:Label="Study Day of End of Treatment"
  def:ComputationMethodOID="COMPMETHOD.STUDY_DAY"
/>
<ItemDef OID="LB.STUDYID"
  Name="STUDYID"
  DataType="text"
  Length="12"
  Origin="CRF Page 7"
  Comment=" "
  def:Label="Study Identifier"
/>
<ItemDef OID="LB.DOMAIN"
  Name="DOMAIN"
  DataType="text"
  Length="2"
  Origin="Assigned"
  Comment=" "
  def:Label="Domain Abbreviation"
/>
<ItemDef OID="LB.USUBJID"
  Name="USUBJID"
  DataType="text"
  Length="11"
  Origin="Derived"
  Comment="Concatenation of STUDYID, DM.SITEID and DM.SUBJID"
  def:Label="Unique Subject Identifier"
/>
<ItemDef OID="LB.LBSEQ"
  Name="LBSEQ"
  DataType="integer"
  Length="8"
  Origin="Derived"
  Comment="Sequential number identifying records within each USUBJID"
  def:Label="Sequence Number"
/>
<ItemDef OID="LB.LBTESTCD"
  Name="LBTESTCD"
  DataType="text"
  Length="7"
  Origin="eDT"
  Comment=" "
  def:Label="Lab Test or Examination Short Name"
/>
<ItemDef OID="LB.LBTEST"
  Name="LBTEST"
  DataType="text"
  Length="200"
  Origin="eDT"
  Comment=" "
  def:Label="Lab Test or Examination Name"
/>
<ItemDef OID="LB.LBCAT"
  Name="LBCAT"
  DataType="text"
  Length="10"
  Origin="eDT"
  Comment=" "
  def:Label="Category for Lab Test"
  >
  <CodeListRef CodeListOID="LBCAT"/>
  <def:ValueListRef ValueListOID="ValueList.LB.LBCAT"/>
</ItemDef>
<ItemDef OID="LB.LBORRES"
  Name="LBORRES"
  DataType="text"
  Length="5"
  Origin="eDT"
  Comment=" "
  def:Label="Result or Finding in Original Units"
/>
<ItemDef OID="LB.LBORRESU"
  Name="LBORRESU"
  DataType="text"
  Length="8"
  Origin="eDT"
  Comment=" "
  def:Label="Original Units"
/>
<ItemDef OID="LB.LBORNRLO"
  Name="LBORNRLO"
  DataType="text"
  Length="5"
  Origin="eDT"
  Comment=" "
  def:Label="Reference Range Lower Limit in Orig Unit"
/>
<ItemDef OID="LB.LBORNRHI"
  Name="LBORNRHI"
  DataType="text"
  Length="7"
  Origin="eDT"
  Comment=" "
  def:Label="Reference Range Upper Limit in Orig Unit"
/>
<ItemDef OID="LB.LBSTRESC"
  Name="LBSTRESC"
  DataType="text"
  Length="8"
  Origin="Derived"
  Comment="LBORRES converted to standard unit (LBSTRESU)"
  def:Label="Character Result/Finding in Std Format"
/>
<ItemDef OID="LB.LBSTRESN"
  Name="LBSTRESN"
  DataType="integer"
  Length="8"
  Origin="Derived"
  Comment="LBSTRESC converted to numeric"
  def:Label="Numeric Result/Finding in Standard Units"
/>
<ItemDef OID="LB.LBSTRESU"
  Name="LBSTRESU"
  DataType="text"
  Length="8"
  Origin="Assigned"
  Comment="Standard unit per parameter assigned for summarizing analyses"
  def:Label="Standard Units"
  >
  <CodeListRef CodeListOID="LBUNIT"/>
</ItemDef>
<ItemDef OID="LB.LBSTNRLO"
  Name="LBSTNRLO"
  DataType="integer"
  Length="8"
  Origin="Derived"
  Comment="LBORNRLO converted to standard unit (LBSTRESU)"
  def:Label="Reference Range Lower Limit-Std Units"
/>
<ItemDef OID="LB.LBSTNRHI"
  Name="LBSTNRHI"
  DataType="integer"
  Length="8"
  Origin="Derived"
  Comment="LBORNRHI converted to standard unit (LBSTRESU)"
  def:Label="Reference Range Upper Limit-Std Units"
/>
<ItemDef OID="LB.LBNRIND"
  Name="LBNRIND"
  DataType="text"
  Length="200"
  Origin="Derived"
  Comment="If LBSTRESN &gt; LBSTNRHI then LBNRIND=&quot;HIGH&quot;. If LBSTRESN &lt; LBSTNRLO then LBNRIND=&quot;LOW&quot;. If LBSTRESN between LBSTNRLO and LBSTNRHI then LBNRIND=&quot;NORMAL&quot;. Selected urinalysis parameters (e.g. Ketones) are classified as NORMAL or ABNORMAL only."
  def:Label="Reference Range Indicator"
  >
  <CodeListRef CodeListOID="LBNRIND"/>
</ItemDef>
<ItemDef OID="LB.LBBLFL"
  Name="LBBLFL"
  DataType="text"
  Length="1"
  Origin="Derived"
  Comment="If VISIT=&quot;SCREENING&quot; then LBBLFL=Y"
  def:Label="Baseline Flag"
  >
  <CodeListRef CodeListOID="Y_BLANK"/>
</ItemDef>
<ItemDef OID="LB.VISITNUM"
  Name="VISITNUM"
  DataType="float"
  Length="8"
  SignificantDigits="1"
  Origin="eDT"
  Comment=" "
  def:Label="Visit Number"
  def:DisplayFormat="8.1"
  >
  <CodeListRef CodeListOID="VISITNUM"/>
</ItemDef>
<ItemDef OID="LB.VISIT"
  Name="VISIT"
  DataType="text"
  Length="19"
  Origin="eDT"
  Comment=" "
  def:Label="Visit Name"
  >
  <CodeListRef CodeListOID="VISIT"/>
</ItemDef>
<ItemDef OID="LB.VISITDY"
  Name="VISITDY"
  DataType="integer"
  Length="8"
  Origin="Derived"
  Comment="TV.VISITDY"
  def:Label="Planned Study Day of Visit"
/>
<ItemDef OID="LB.LBDTC"
  Name="LBDTC"
  DataType="datetime"
  Length="16"
  Origin="eDT"
  Comment=" "
  def:Label="Date/Time of Specimen Collection"
/>
<ItemDef OID="LB.LBDY"
  Name="LBDY"
  DataType="integer"
  Length="8"
  Origin="Derived"
  def:Label="Study Day of Specimen Collection"
  def:ComputationMethodOID="COMPMETHOD.STUDY_DAY"
/>
<ItemDef OID="MH.STUDYID"
  Name="STUDYID"
  DataType="text"
  Length="12"
  Origin="CRF Page 7"
  Comment=" "
  def:Label="Study Identifier"
/>
<ItemDef OID="MH.DOMAIN"
  Name="DOMAIN"
  DataType="text"
  Length="2"
  Origin="Assigned"
  Comment=" "
  def:Label="Domain Abbreviation"
/>
<ItemDef OID="MH.USUBJID"
  Name="USUBJID"
  DataType="text"
  Length="11"
  Origin="Derived"
  Comment="Concatenation of STUDYID, DM.SITEID and DM.SUBJID"
  def:Label="Unique Subject Identifier"
/>
<ItemDef OID="MH.MHSEQ"
  Name="MHSEQ"
  DataType="integer"
  Length="8"
  Origin="Derived"
  Comment="Sequential number identifying records within each USUBJID"
  def:Label="Sequence Number"
/>
<ItemDef OID="MH.MHSPID"
  Name="MHSPID"
  DataType="text"
  Length="3"
  Origin="CRF Pages 14, 15, 121, 122, 123"
  Comment=" "
  def:Label="Sponsor-Defined Identifier"
/>
<ItemDef OID="MH.MHTERM"
  Name="MHTERM"
  DataType="text"
  Length="19"
  Origin="CRF Pages 14, 15, 121, 122, 123"
  Comment=" "
  def:Label="Reported Term for the Medical History"
/>
<ItemDef OID="MH.MHLLT"
  Name="MHLLT"
  DataType="text"
  Length="200"
  Origin="Assigned"
  Comment=" "
  def:Label="Lowest Level Term"
  >
  <CodeListRef CodeListOID="MHDICT"/>
</ItemDef>
<ItemDef OID="MH.MHDECOD"
  Name="MHDECOD"
  DataType="text"
  Length="44"
  Origin="Assigned"
  Comment=" "
  def:Label="Dictionary-Derived Term"
  >
  <CodeListRef CodeListOID="MHDICT"/>
</ItemDef>
<ItemDef OID="MH.MHHLT"
  Name="MHHLT"
  DataType="text"
  Length="200"
  Origin="Assigned"
  Comment=" "
  def:Label="High Level Term"
  >
  <CodeListRef CodeListOID="MHDICT"/>
</ItemDef>
<ItemDef OID="MH.MHHLGT"
  Name="MHHLGT"
  DataType="text"
  Length="200"
  Origin="Assigned"
  Comment=" "
  def:Label="High Level Group Term"
  >
  <CodeListRef CodeListOID="MHDICT"/>
</ItemDef>
<ItemDef OID="MH.MHCAT"
  Name="MHCAT"
  DataType="text"
  Length="34"
  Origin="Assigned"
  Comment="Category values are assigned according to the CRF Section label wich was used to collect that type of medical history information."
  def:Label="Category for Medical History"
  >
  <CodeListRef CodeListOID="MHCAT"/>
</ItemDef>
<ItemDef OID="MH.MHBODSYS"
  Name="MHBODSYS"
  DataType="text"
  Length="67"
  Origin="Assigned"
  Comment=" "
  def:Label="Body System or Organ Class"
  >
  <CodeListRef CodeListOID="MHDICT"/>
</ItemDef>
<ItemDef OID="MH.MHSEV"
  Name="MHSEV"
  DataType="text"
  Length="8"
  Origin="CRF Pages 121, 122, 123"
  Comment=" "
  def:Label="Severity/Intensity"
  >
  <CodeListRef CodeListOID="SEV"/>
</ItemDef>
<ItemDef OID="MH.VISITNUM"
  Name="VISITNUM"
  DataType="float"
  Length="8"
  SignificantDigits="1"
  Origin="CRF Pages 14, 15, 121, 122, 123"
  Comment=" "
  def:Label="Visit Number"
  def:DisplayFormat="8.1"
  >
  <CodeListRef CodeListOID="VISITNUM"/>
</ItemDef>
<ItemDef OID="MH.VISIT"
  Name="VISIT"
  DataType="text"
  Length="19"
  Origin="CRF Pages 14, 15, 121, 122, 123"
  Comment=" "
  def:Label="Visit Name"
  >
  <CodeListRef CodeListOID="VISIT"/>
</ItemDef>
<ItemDef OID="MH.VISITDY"
  Name="VISITDY"
  DataType="integer"
  Length="8"
  Origin="Derived"
  Comment="TV.VISITDY"
  def:Label="Planned Study Day of Visit"
/>
<ItemDef OID="MH.MHDTC"
  Name="MHDTC"
  DataType="date"
  Length="10"
  Origin="CRF Pages 14, 15, 121, 122, 123"
  Comment=" "
  def:Label="Date/Time of History Collection"
/>
<ItemDef OID="MH.MHSTDTC"
  Name="MHSTDTC"
  DataType="date"
  Length="10"
  Origin="CRF Pages 12, 14"
  Comment=" "
  def:Label="Start Date/Time of Medical History Event"
/>
<ItemDef OID="MH.MHDY"
  Name="MHDY"
  DataType="integer"
  Length="8"
  Origin="Derived"
  def:Label="Study Day of History Collection"
  def:ComputationMethodOID="COMPMETHOD.STUDY_DAY"
/>
<ItemDef OID="QS.STUDYID"
  Name="STUDYID"
  DataType="text"
  Length="12"
  Origin="CRF Page 7"
  Comment=" "
  def:Label="Study Identifier"
/>
<ItemDef OID="QS.DOMAIN"
  Name="DOMAIN"
  DataType="text"
  Length="2"
  Origin="Assigned"
  Comment=" "
  def:Label="Domain Abbreviation"
/>
<ItemDef OID="QS.USUBJID"
  Name="USUBJID"
  DataType="text"
  Length="11"
  Origin="Derived"
  Comment="Concatenation of STUDYID, DM.SITEID and DM.SUBJID"
  def:Label="Unique Subject Identifier"
/>
<ItemDef OID="QS.QSSEQ"
  Name="QSSEQ"
  DataType="integer"
  Length="8"
  Origin="Derived"
  Comment="Sequential number identifying records within each USUBJID"
  def:Label="Sequence Number"
/>
<ItemDef OID="QS.QSTESTCD"
  Name="QSTESTCD"
  DataType="text"
  Length="8"
  Origin="CRF Pages 10, 11, 26, 27, 28, 29, 38, 44, 54, 59, 60, 61, 62, 63, 69, 74, 75, 76, 77, 78, 84, 89, 91, 92, 93, 94, 95, 101, 109, 110, 111, 112, 113, 130, 131, 132, 133, 134, 156, 157"
  Comment=" "
  def:Label="Question Short Name"
  >
  <def:ValueListRef ValueListOID="ValueList.QS.QSTESTCD"/>
</ItemDef>
<ItemDef OID="QS.QSTEST"
  Name="QSTEST"
  DataType="text"
  Length="40"
  Origin="CRF Pages 10, 11, 26, 27, 28, 29, 38, 44, 54, 59, 60, 61, 62, 63, 69, 74, 75, 76, 77, 78, 84, 89, 91, 92, 93, 94, 95, 101, 109, 110, 111, 112, 113, 130, 131, 132, 133, 134, 156, 157"
  Comment=" "
  def:Label="Question Name"
/>
<ItemDef OID="QS.QSCAT"
  Name="QSCAT"
  DataType="text"
  Length="70"
  Origin="CRF Pages 10, 11, 26, 27, 28, 29, 38, 44, 54, 59, 60, 61, 62, 63, 69, 74, 75, 76, 77, 78, 84, 89, 91, 92, 93, 94, 95, 101, 109, 110, 111, 112, 113, 130, 131, 132, 133, 134, 156, 157"
  Comment=" "
  def:Label="Category of Question"
  >
  <CodeListRef CodeListOID="QSCAT"/>
</ItemDef>
<ItemDef OID="QS.QSSCAT"
  Name="QSSCAT"
  DataType="text"
  Length="26"
  Origin="CRF Pages 10, 11, 26, 27, 28, 29, 38, 44, 54, 59, 60, 61, 62, 63, 69, 74, 75, 76, 77, 78, 84, 89, 91, 92, 93, 94, 95, 101, 109, 110, 111, 112, 113, 130, 131, 132, 133, 134, 156, 157"
  Comment=" "
  def:Label="Subcategory for Question"
/>
<ItemDef OID="QS.QSORRES"
  Name="QSORRES"
  DataType="text"
  Length="20"
  Origin="CRF Pages 10, 11, 26, 27, 28, 29, 38, 44, 54, 59, 60, 61, 62, 63, 69, 74, 75, 76, 77, 78, 84, 89, 91, 92, 93, 94, 95, 101, 109, 110, 111, 112, 113, 130, 131, 132, 133, 134, 156, 157"
  Comment=" "
  def:Label="Finding in Original Units"
/>
<ItemDef OID="QS.QSORRESU"
  Name="QSORRESU"
  DataType="text"
  Length="7"
  Origin="CRF Pages 26, 59, 74, 91, 109, 130"
  Comment=" "
  def:Label="Original Units"
  >
  <CodeListRef CodeListOID="QSUNIT"/>
</ItemDef>
<ItemDef OID="QS.QSSTRESC"
  Name="QSSTRESC"
  DataType="text"
  Length="4"
  Origin="Derived"
  Comment="Derived standardized value for collect result (QSORRES)"
  def:Label="Character Result/Finding in Std Format"
/>
<ItemDef OID="QS.QSSTRESN"
  Name="QSSTRESN"
  DataType="integer"
  Length="8"
  Origin="Derived"
  def:Label="Numeric Finding in Standard Units"
  def:ComputationMethodOID="COMPMETHOD.QSAD_QSSTRESN"
/>
<ItemDef OID="QS.QSSTRESU"
  Name="QSSTRESU"
  DataType="text"
  Length="7"
  Origin="Derived"
  Comment="QSSTRESU=QSORRESU"
  def:Label="Standard Units"
  >
  <CodeListRef CodeListOID="QSUNIT"/>
</ItemDef>
<ItemDef OID="QS.QSBLFL"
  Name="QSBLFL"
  DataType="text"
  Length="1"
  Origin="Derived"
  Comment="If VISIT=&quot;BASELINE&quot; then QSBLFL=&quot;Y&quot;"
  def:Label="Baseline Flag"
  >
  <CodeListRef CodeListOID="Y_BLANK"/>
</ItemDef>
<ItemDef OID="QS.QSDRVFL"
  Name="QSDRVFL"
  DataType="text"
  Length="1"
  Origin="Assigned"
  Comment="Individual test results which were not collected on CRF but derived are flagged with QSDRVFL=&quot;Y&quot;"
  def:Label="Derived Flag"
  >
  <CodeListRef CodeListOID="Y_BLANK"/>
</ItemDef>
<ItemDef OID="QS.VISITNUM"
  Name="VISITNUM"
  DataType="float"
  Length="8"
  SignificantDigits="1"
  Origin="CRF Pages 10, 11, 26, 27, 28, 29, 38, 44, 54, 59, 60, 61, 62, 63, 69, 74, 75, 76, 77, 78, 84, 89, 91, 92, 93, 94, 95, 101, 109, 110, 111, 112, 113, 130, 131, 132, 133, 134, 156, 157"
  Comment=" "
  def:Label="Visit Number"
  def:DisplayFormat="8.1"
  >
  <CodeListRef CodeListOID="VISITNUM"/>
</ItemDef>
<ItemDef OID="QS.VISIT"
  Name="VISIT"
  DataType="text"
  Length="19"
  Origin="CRF Pages 10, 11, 26, 27, 28, 29, 38, 44, 54, 59, 60, 61, 62, 63, 69, 74, 75, 76, 77, 78, 84, 89, 91, 92, 93, 94, 95, 101, 109, 110, 111, 112, 113, 130, 131, 132, 133, 134, 156, 157"
  Comment=" "
  def:Label="Visit Name"
  >
  <CodeListRef CodeListOID="VISIT"/>
</ItemDef>
<ItemDef OID="QS.VISITDY"
  Name="VISITDY"
  DataType="integer"
  Length="8"
  Origin="Derived"
  Comment="TV.VISITDY"
  def:Label="Planned Study Day of Visit"
/>
<ItemDef OID="QS.QSDTC"
  Name="QSDTC"
  DataType="date"
  Length="10"
  Origin="Derived"
  Comment="QSDTC=SV.SVSTDTC of the respective VISIT"
  def:Label="Date/Time of Finding"
/>
<ItemDef OID="QS.QSDY"
  Name="QSDY"
  DataType="integer"
  Length="8"
  Origin="Derived"
  def:Label="Study Day of Finding"
  def:ComputationMethodOID="COMPMETHOD.STUDY_DAY"
/>
<ItemDef OID="RELREC.STUDYID"
  Name="STUDYID"
  DataType="text"
  Length="12"
  Origin="CRF Page 7"
  Comment=" "
  def:Label="Study Identifier"
/>
<ItemDef OID="RELREC.RDOMAIN"
  Name="RDOMAIN"
  DataType="text"
  Length="2"
  Origin="Derived"
  Comment="Domain abbreviations for domains which are related to at least one other domain. Derived from parent record"
  def:Label="Related Domain Abbreviation"
/>
<ItemDef OID="RELREC.USUBJID"
  Name="USUBJID"
  DataType="text"
  Length="11"
  Origin="Derived"
  Comment="Concatenation of STUDYID, DM.SITEID and DM.SUBJID"
  def:Label="Unique Subject Identifier"
/>
<ItemDef OID="RELREC.IDVAR"
  Name="IDVAR"
  DataType="text"
  Length="8"
  Origin="Derived"
  Comment="Derived from parent record"
  def:Label="Identifying Variable"
/>
<ItemDef OID="RELREC.IDVARVAL"
  Name="IDVARVAL"
  DataType="text"
  Length="200"
  Origin="Derived"
  Comment="Derived from parent record"
  def:Label="Identifying Variable Value"
/>
<ItemDef OID="RELREC.RELTYPE"
  Name="RELTYPE"
  DataType="text"
  Length="30"
  Origin="Assigned"
  Comment=" "
  def:Label="Relationship Type"
/>
<ItemDef OID="RELREC.RELID"
  Name="RELID"
  DataType="text"
  Length="200"
  Origin="Derived"
  Comment="Records with the same RELID value can be considered as related records"
  def:Label="Relationship Identifier"
/>
<ItemDef OID="SC.STUDYID"
  Name="STUDYID"
  DataType="text"
  Length="12"
  Origin="CRF Page 7"
  Comment=" "
  def:Label="Study Identifier"
/>
<ItemDef OID="SC.DOMAIN"
  Name="DOMAIN"
  DataType="text"
  Length="2"
  Origin="Assigned"
  Comment=" "
  def:Label="Domain Abbreviation"
/>
<ItemDef OID="SC.USUBJID"
  Name="USUBJID"
  DataType="text"
  Length="11"
  Origin="Derived"
  Comment="Concatenation of STUDYID, DM.SITEID and DM.SUBJID"
  def:Label="Unique Subject Identifier"
/>
<ItemDef OID="SC.SCSEQ"
  Name="SCSEQ"
  DataType="integer"
  Length="8"
  Origin="Derived"
  Comment="Sequential number identifying records within each USUBJID"
  def:Label="Sequence Number"
/>
<ItemDef OID="SC.SCTESTCD"
  Name="SCTESTCD"
  DataType="text"
  Length="8"
  Origin="CRF Page 8"
  Comment=" "
  def:Label="Subject Characteristic Short Name"
  >
  <def:ValueListRef ValueListOID="ValueList.SC.SCTESTCD"/>
</ItemDef>
<ItemDef OID="SC.SCTEST"
  Name="SCTEST"
  DataType="text"
  Length="18"
  Origin="CRF Page 8"
  Comment=" "
  def:Label="Subject Characteristic"
/>
<ItemDef OID="SC.SCCAT"
  Name="SCCAT"
  DataType="text"
  Length="9"
  Origin="Assigned"
  Comment="Corresponds to the CRF Section label where the data were obtained from."
  def:Label="Category for Subject Characteristic"
  >
  <CodeListRef CodeListOID="SCCAT"/>
</ItemDef>
<ItemDef OID="SC.SCORRES"
  Name="SCORRES"
  DataType="text"
  Length="2"
  Origin="CRF Page 8"
  Comment=" "
  def:Label="Result or Finding in Original Units"
/>
<ItemDef OID="SC.SCORRESU"
  Name="SCORRESU"
  DataType="text"
  Length="5"
  Origin="CRF Page 8"
  Comment=" "
  def:Label="Original Units"
  >
  <CodeListRef CodeListOID="SCUNIT"/>
</ItemDef>
<ItemDef OID="SC.SCSTRESC"
  Name="SCSTRESC"
  DataType="text"
  Length="2"
  Origin="Derived"
  Comment="SCORRES converted to standard unit"
  def:Label="Character Result/Finding in Std Format"
/>
<ItemDef OID="SC.SCSTRESN"
  Name="SCSTRESN"
  DataType="integer"
  Length="8"
  Origin="Derived"
  Comment="SCSTRESC converted to numeric"
  def:Label="Numeric Result/Finding in Standard Units"
/>
<ItemDef OID="SC.SCSTRESU"
  Name="SCSTRESU"
  DataType="text"
  Length="5"
  Origin="Derived"
  Comment="SCSTRESU=SCORRESU"
  def:Label="Standard Units"
  >
  <CodeListRef CodeListOID="SCUNIT"/>
</ItemDef>
<ItemDef OID="SC.SCDTC"
  Name="SCDTC"
  DataType="date"
  Length="10"
  Origin="CRF Page 7"
  Comment=" "
  def:Label="Date/Time of Collection"
/>
<ItemDef OID="SC.SCDY"
  Name="SCDY"
  DataType="integer"
  Length="8"
  Origin="Derived"
  def:Label="Study Day of Examination"
  def:ComputationMethodOID="COMPMETHOD.STUDY_DAY"
/>
<ItemDef OID="SE.STUDYID"
  Name="STUDYID"
  DataType="text"
  Length="12"
  Origin="CRF Page 7"
  Comment=" "
  def:Label="Study Identifier"
/>
<ItemDef OID="SE.DOMAIN"
  Name="DOMAIN"
  DataType="text"
  Length="2"
  Origin="Assigned"
  Comment=" "
  def:Label="Domain Abbreviation"
/>
<ItemDef OID="SE.USUBJID"
  Name="USUBJID"
  DataType="text"
  Length="11"
  Origin="Derived"
  Comment="Concatenation of STUDYID, DM.SITEID and DM.SUBJID"
  def:Label="Unique Subject Identifier"
/>
<ItemDef OID="SE.SESEQ"
  Name="SESEQ"
  DataType="integer"
  Length="8"
  Origin="Derived"
  Comment="Sequential number identifying records within each USUBJID"
  def:Label="Sequence Number"
/>
<ItemDef OID="SE.ETCD"
  Name="ETCD"
  DataType="text"
  Length="200"
  Origin="Assigned"
  Comment=" "
  def:Label="Element Code"
  >
  <CodeListRef CodeListOID="ETCD"/>
</ItemDef>
<ItemDef OID="SE.ELEMENT"
  Name="ELEMENT"
  DataType="text"
  Length="200"
  Origin="Protocol"
  Comment=" "
  def:Label="Description of Element"
  >
  <CodeListRef CodeListOID="ELEMENT"/>
</ItemDef>
<ItemDef OID="SE.SESTDTC"
  Name="SESTDTC"
  DataType="date"
  Length="10"
  Origin="Derived"
  Comment="Earliest date/time when data pertaining to that element were collected"
  def:Label="Start Date/Time of Element"
/>
<ItemDef OID="SE.SEENDTC"
  Name="SEENDTC"
  DataType="date"
  Length="10"
  Origin="Derived"
  Comment="Last date/time when data pertaining to that element were collected"
  def:Label="End Date/Time of Element"
/>
<ItemDef OID="SE.SEUPDES"
  Name="SEUPDES"
  DataType="text"
  Length="200"
  Origin="Assigned"
  Comment=" "
  def:Label="Description of Unplanned Element"
/>
<ItemDef OID="SUPPAE.STUDYID"
  Name="STUDYID"
  DataType="text"
  Length="12"
  Origin="CRF Page 7"
  Comment=" "
  def:Label="Study Identifier"
/>
<ItemDef OID="SUPPAE.RDOMAIN"
  Name="RDOMAIN"
  DataType="text"
  Length="2"
  Origin="Assigned"
  Comment="RDOMAIN=&quot;AE&quot;"
  def:Label="Related Domain Abbreviation"
/>
<ItemDef OID="SUPPAE.USUBJID"
  Name="USUBJID"
  DataType="text"
  Length="11"
  Origin="Derived"
  Comment="Concatenation of STUDYID, DM.SITEID and DM.SUBJID"
  def:Label="Unique Subject Identifier"
/>
<ItemDef OID="SUPPAE.IDVAR"
  Name="IDVAR"
  DataType="text"
  Length="8"
  Origin="Assigned"
  Comment="IDVAR=&quot;AESEQ&quot;"
  def:Label="Identifying Variable"
/>
<ItemDef OID="SUPPAE.IDVARVAL"
  Name="IDVARVAL"
  DataType="text"
  Length="200"
  Origin="Derived"
  Comment="Value of AESEQ of corresponding parent record"
  def:Label="Identifying Variable Value"
/>
<ItemDef OID="SUPPAE.QNAM"
  Name="QNAM"
  DataType="text"
  Length="8"
  Origin="Assigned"
  Comment=" "
  def:Label="Qualifier Variable Name"
  >
  <def:ValueListRef ValueListOID="ValueList.SUPPAE.QNAM"/>
</ItemDef>
<ItemDef OID="SUPPAE.QLABEL"
  Name="QLABEL"
  DataType="text"
  Length="40"
  Origin="Assigned"
  Comment=" "
  def:Label="Qualifier Variable Label"
/>
<ItemDef OID="SUPPAE.QVAL"
  Name="QVAL"
  DataType="text"
  Length="200"
  Origin="Derived"
  Comment="see value level metadata"
  def:Label="Data Value"
/>
<ItemDef OID="SUPPAE.QORIG"
  Name="QORIG"
  DataType="text"
  Length="200"
  Origin="Assigned"
  Comment=" "
  def:Label="Origin"
/>
<ItemDef OID="SUPPAE.QEVAL"
  Name="QEVAL"
  DataType="text"
  Length="200"
  Origin="Assigned"
  Comment=" "
  def:Label="Evaluator"
  >
  <CodeListRef CodeListOID="QEVAL"/>
</ItemDef>
<ItemDef OID="SUPPDM.STUDYID"
  Name="STUDYID"
  DataType="text"
  Length="12"
  Origin="CRF Page 7"
  Comment=" "
  def:Label="Study Identifier"
/>
<ItemDef OID="SUPPDM.RDOMAIN"
  Name="RDOMAIN"
  DataType="text"
  Length="2"
  Origin="Assigned"
  Comment="RDOMAIN=&quot;AE&quot;"
  def:Label="Related Domain Abbreviation"
/>
<ItemDef OID="SUPPDM.USUBJID"
  Name="USUBJID"
  DataType="text"
  Length="11"
  Origin="Derived"
  Comment="Concatenation of STUDYID, DM.SITEID and DM.SUBJID"
  def:Label="Unique Subject Identifier"
/>
<ItemDef OID="SUPPDM.IDVAR"
  Name="IDVAR"
  DataType="text"
  Length="8"
  Origin="Assigned"
  Comment="IDVAR=&quot; &quot;"
  def:Label="Identifying Variable"
/>
<ItemDef OID="SUPPDM.IDVARVAL"
  Name="IDVARVAL"
  DataType="text"
  Length="200"
  Origin="Assigned"
  Comment="IDVARVAL= &quot; &quot;"
  def:Label="Identifying Variable Value"
/>
<ItemDef OID="SUPPDM.QNAM"
  Name="QNAM"
  DataType="text"
  Length="8"
  Origin="Assigned"
  Comment=" "
  def:Label="Qualifier Variable Name"
  >
  <def:ValueListRef ValueListOID="ValueList.SUPPDM.QNAM"/>
</ItemDef>
<ItemDef OID="SUPPDM.QLABEL"
  Name="QLABEL"
  DataType="text"
  Length="40"
  Origin="Assigned"
  Comment=" "
  def:Label="Qualifier Variable Label"
/>
<ItemDef OID="SUPPDM.QVAL"
  Name="QVAL"
  DataType="text"
  Length="200"
  Origin="Derived"
  Comment="see value level metadata"
  def:Label="Data Value"
/>
<ItemDef OID="SUPPDM.QORIG"
  Name="QORIG"
  DataType="text"
  Length="200"
  Origin="Assigned"
  Comment=" "
  def:Label="Origin"
/>
<ItemDef OID="SUPPDM.QEVAL"
  Name="QEVAL"
  DataType="text"
  Length="200"
  Origin="Assigned"
  Comment=" "
  def:Label="Evaluator"
  >
  <CodeListRef CodeListOID="QEVAL"/>
</ItemDef>
<ItemDef OID="SUPPDS.STUDYID"
  Name="STUDYID"
  DataType="text"
  Length="12"
  Origin="CRF Page 7"
  Comment=" "
  def:Label="Study Identifier"
/>
<ItemDef OID="SUPPDS.RDOMAIN"
  Name="RDOMAIN"
  DataType="text"
  Length="2"
  Origin="Assigned"
  Comment="RDOMAIN=&quot;DS&quot;"
  def:Label="Related Domain Abbreviation"
/>
<ItemDef OID="SUPPDS.USUBJID"
  Name="USUBJID"
  DataType="text"
  Length="11"
  Origin="Derived"
  Comment="Concatenation of STUDYID, DM.SITEID and DM.SUBJID"
  def:Label="Unique Subject Identifier"
/>
<ItemDef OID="SUPPDS.IDVAR"
  Name="IDVAR"
  DataType="text"
  Length="8"
  Origin="Assigned"
  Comment="IDVAR=&quot;DSSEQ&quot;"
  def:Label="Identifying Variable"
/>
<ItemDef OID="SUPPDS.IDVARVAL"
  Name="IDVARVAL"
  DataType="text"
  Length="200"
  Origin="Derived"
  Comment="Value of DSSEQ of corresponding parent record"
  def:Label="Identifying Variable Value"
/>
<ItemDef OID="SUPPDS.QNAM"
  Name="QNAM"
  DataType="text"
  Length="8"
  Origin="Assigned"
  Comment=" "
  def:Label="Qualifier Variable Name"
  >
  <def:ValueListRef ValueListOID="ValueList.SUPPDS.QNAM"/>
</ItemDef>
<ItemDef OID="SUPPDS.QLABEL"
  Name="QLABEL"
  DataType="text"
  Length="40"
  Origin="CRF Pages 106, 139"
  Comment=" "
  def:Label="Qualifier Variable Label"
/>
<ItemDef OID="SUPPDS.QVAL"
  Name="QVAL"
  DataType="text"
  Length="200"
  Origin="CRF Pages 106, 139"
  Comment="see value level metadata"
  def:Label="Data Value"
/>
<ItemDef OID="SUPPDS.QORIG"
  Name="QORIG"
  DataType="text"
  Length="200"
  Origin="Assigned"
  Comment=" "
  def:Label="Origin"
/>
<ItemDef OID="SUPPDS.QEVAL"
  Name="QEVAL"
  DataType="text"
  Length="200"
  Origin="Assigned"
  Comment=" "
  def:Label="Evaluator"
  >
  <CodeListRef CodeListOID="QEVAL"/>
</ItemDef>
<ItemDef OID="SUPPLB.STUDYID"
  Name="STUDYID"
  DataType="text"
  Length="12"
  Origin="CRF Page 7"
  Comment=" "
  def:Label="Study Identifier"
/>
<ItemDef OID="SUPPLB.RDOMAIN"
  Name="RDOMAIN"
  DataType="text"
  Length="2"
  Origin="Assigned"
  Comment="RDOMAIN=&quot;LB&quot;"
  def:Label="Related Domain Abbreviation"
/>
<ItemDef OID="SUPPLB.USUBJID"
  Name="USUBJID"
  DataType="text"
  Length="11"
  Origin="Derived"
  Comment="Concatenation of STUDYID, DM.SITEID and DM.SUBJID"
  def:Label="Unique Subject Identifier"
/>
<ItemDef OID="SUPPLB.IDVAR"
  Name="IDVAR"
  DataType="text"
  Length="8"
  Origin="Assigned"
  Comment="IDVAR=&quot;LBSEQ&quot;"
  def:Label="Identifying Variable"
/>
<ItemDef OID="SUPPLB.IDVARVAL"
  Name="IDVARVAL"
  DataType="text"
  Length="200"
  Origin="Derived"
  Comment="Value of LBSEQ of corresponding parent record"
  def:Label="Identifying Variable Value"
/>
<ItemDef OID="SUPPLB.QNAM"
  Name="QNAM"
  DataType="text"
  Length="8"
  Origin="Assigned"
  Comment=" "
  def:Label="Qualifier Variable Name"
  >
  <def:ValueListRef ValueListOID="ValueList.SUPPLB.QNAM"/>
</ItemDef>
<ItemDef OID="SUPPLB.QLABEL"
  Name="QLABEL"
  DataType="text"
  Length="40"
  Origin="Assigned"
  Comment=" "
  def:Label="Qualifier Variable Label"
/>
<ItemDef OID="SUPPLB.QVAL"
  Name="QVAL"
  DataType="text"
  Length="200"
  Origin="Derived"
  Comment="see value level metadata"
  def:Label="Data Value"
/>
<ItemDef OID="SUPPLB.QORIG"
  Name="QORIG"
  DataType="text"
  Length="200"
  Origin="Assigned"
  Comment=" "
  def:Label="Origin"
/>
<ItemDef OID="SUPPLB.QEVAL"
  Name="QEVAL"
  DataType="text"
  Length="200"
  Origin="Assigned"
  Comment=" "
  def:Label="Evaluator"
  >
  <CodeListRef CodeListOID="QEVAL"/>
</ItemDef>
<ItemDef OID="SV.STUDYID"
  Name="STUDYID"
  DataType="text"
  Length="12"
  Origin="CRF Page 7"
  Comment=" "
  def:Label="Study Identifier"
/>
<ItemDef OID="SV.DOMAIN"
  Name="DOMAIN"
  DataType="text"
  Length="2"
  Origin="Assigned"
  Comment=" "
  def:Label="Domain Abbreviation"
/>
<ItemDef OID="SV.USUBJID"
  Name="USUBJID"
  DataType="text"
  Length="11"
  Origin="Derived"
  Comment="Concatenation of STUDYID, DM.SITEID and DM.SUBJID"
  def:Label="Unique Subject Identifier"
/>
<ItemDef OID="SV.VISITNUM"
  Name="VISITNUM"
  DataType="float"
  Length="8"
  SignificantDigits="1"
  Origin="CRF Pages 7, 22, 25, 32, 36, 42, 49, 52, 58, 67, 73, 82, 88, 90, 99, 108, 116, 121, 122, 123, 123, 125, 126, 128"
  Comment=" "
  def:Label="Visit Number"
  def:DisplayFormat="8.1"
  >
  <CodeListRef CodeListOID="VISITNUM"/>
</ItemDef>
<ItemDef OID="SV.VISIT"
  Name="VISIT"
  DataType="text"
  Length="19"
  Origin="CRF Pages 7, 22, 25, 32, 36, 42, 49, 52, 58, 67, 73, 82, 88, 90, 99, 108, 116, 121, 122, 123, 123, 125, 126, 128"
  Comment=" "
  def:Label="Visit Name"
  >
  <CodeListRef CodeListOID="VISIT"/>
</ItemDef>
<ItemDef OID="SV.VISITDY"
  Name="VISITDY"
  DataType="integer"
  Length="8"
  Origin="Derived"
  Comment="TV.VISITDY"
  def:Label="Planned Study Day of Visit"
/>
<ItemDef OID="SV.SVSTDTC"
  Name="SVSTDTC"
  DataType="date"
  Length="10"
  Origin="Derived"
  Comment="Earliest date when data were collected for the corresponding visit."
  def:Label="Start Date/Time of Visit"
/>
<ItemDef OID="SV.SVENDTC"
  Name="SVENDTC"
  DataType="date"
  Length="10"
  Origin="Derived"
  Comment="Lastt date when data were collected for the corresponding visit."
  def:Label="End Date/Time of Visit"
/>
<ItemDef OID="TA.STUDYID"
  Name="STUDYID"
  DataType="text"
  Length="12"
  Origin="CRF Page 7"
  Comment=" "
  def:Label="Study Identifier"
/>
<ItemDef OID="TA.DOMAIN"
  Name="DOMAIN"
  DataType="text"
  Length="2"
  Origin="Assigned"
  Comment=" "
  def:Label="Domain Abbreviation"
/>
<ItemDef OID="TA.ARMCD"
  Name="ARMCD"
  DataType="text"
  Length="8"
  Origin="Assigned"
  Comment=" "
  def:Label="Planned Arm Code"
  >
  <CodeListRef CodeListOID="ARMCD"/>
</ItemDef>
<ItemDef OID="TA.ARM"
  Name="ARM"
  DataType="text"
  Length="20"
  Origin="Protocol"
  Comment=" "
  def:Label="Description of Planned Arm"
  >
  <CodeListRef CodeListOID="ARM"/>
</ItemDef>
<ItemDef OID="TA.TAETORD"
  Name="TAETORD"
  DataType="integer"
  Length="8"
  Origin="Assigned"
  Comment=" "
  def:Label="Order of Element within Arm"
/>
<ItemDef OID="TA.ETCD"
  Name="ETCD"
  DataType="text"
  Length="200"
  Origin="Assigned"
  Comment=" "
  def:Label="Element Code"
  >
  <CodeListRef CodeListOID="ETCD"/>
</ItemDef>
<ItemDef OID="TA.ELEMENT"
  Name="ELEMENT"
  DataType="text"
  Length="200"
  Origin="Protocol"
  Comment=" "
  def:Label="Description of Element"
  >
  <CodeListRef CodeListOID="ELEMENT"/>
</ItemDef>
<ItemDef OID="TA.TABRANCH"
  Name="TABRANCH"
  DataType="text"
  Length="200"
  Origin="Protocol"
  Comment=" "
  def:Label="Branch"
/>
<ItemDef OID="TA.TATRANS"
  Name="TATRANS"
  DataType="text"
  Length="200"
  Origin="Protocol"
  Comment=" "
  def:Label="Transition Rule"
/>
<ItemDef OID="TA.EPOCH"
  Name="EPOCH"
  DataType="text"
  Length="200"
  Origin="Protocol"
  Comment=" "
  def:Label="Epoch"
  >
  <CodeListRef CodeListOID="EPOCH"/>
</ItemDef>
<ItemDef OID="TE.STUDYID"
  Name="STUDYID"
  DataType="text"
  Length="12"
  Origin="CRF Page 7"
  Comment=" "
  def:Label="Study Identifier"
/>
<ItemDef OID="TE.DOMAIN"
  Name="DOMAIN"
  DataType="text"
  Length="2"
  Origin="Assigned"
  Comment=" "
  def:Label="Domain Abbreviation"
/>
<ItemDef OID="TE.ETCD"
  Name="ETCD"
  DataType="text"
  Length="200"
  Origin="Assigned"
  Comment=" "
  def:Label="Element Code"
  >
  <CodeListRef CodeListOID="ETCD"/>
</ItemDef>
<ItemDef OID="TE.ELEMENT"
  Name="ELEMENT"
  DataType="text"
  Length="200"
  Origin="Protocol"
  Comment=" "
  def:Label="Description of Element"
  >
  <CodeListRef CodeListOID="ELEMENT"/>
</ItemDef>
<ItemDef OID="TE.TESTRL"
  Name="TESTRL"
  DataType="text"
  Length="200"
  Origin="Protocol"
  Comment=" "
  def:Label="Rule for Start of Element"
/>
<ItemDef OID="TE.TEENRL"
  Name="TEENRL"
  DataType="text"
  Length="200"
  Origin="Protocol"
  Comment=" "
  def:Label="Rule for End of Element"
/>
<ItemDef OID="TE.TEDUR"
  Name="TEDUR"
  DataType="text"
  Length="200"
  Origin="Protocol"
  Comment=" "
  def:Label="Planned Duration of Element"
/>
<ItemDef OID="TI.STUDYID"
  Name="STUDYID"
  DataType="text"
  Length="12"
  Origin="CRF Page 7"
  Comment=" "
  def:Label="Study Identifier"
/>
<ItemDef OID="TI.DOMAIN"
  Name="DOMAIN"
  DataType="text"
  Length="2"
  Origin="Assigned"
  Comment=" "
  def:Label="Domain Abbreviation"
/>
<ItemDef OID="TI.IETESTCD"
  Name="IETESTCD"
  DataType="text"
  Length="16"
  Origin="Assigned"
  Comment=" "
  def:Label="Incl/Excl Criterion Short Name"
  >
  <CodeListRef CodeListOID="IETESTCD"/>
</ItemDef>
<ItemDef OID="TI.IETEST"
  Name="IETEST"
  DataType="text"
  Length="166"
  Origin="CRF Pages 1, 2, 3, 4, 5, 6"
  Comment=" "
  def:Label="Inclusion/Exclusion Criterion"
  >
  <CodeListRef CodeListOID="IETEST"/>
</ItemDef>
<ItemDef OID="TI.IECAT"
  Name="IECAT"
  DataType="text"
  Length="9"
  Origin="Assigned"
  Comment=" "
  def:Label="Inclusion/Exclusion Category"
  >
  <CodeListRef CodeListOID="IECAT"/>
</ItemDef>
<ItemDef OID="TI.TIRL"
  Name="TIRL"
  DataType="text"
  Length="40"
  Origin="Assigned"
  Comment="TIRL= &quot; &quot;"
  def:Label="Inclusion/Exclusion Criterion Rule"
/>
<ItemDef OID="TS.STUDYID"
  Name="STUDYID"
  DataType="text"
  Length="12"
  Origin="CRF Page 7"
  Comment=" "
  def:Label="Study Identifier"
/>
<ItemDef OID="TS.DOMAIN"
  Name="DOMAIN"
  DataType="text"
  Length="2"
  Origin="Assigned"
  Comment=" "
  def:Label="Domain Abbreviation"
/>
<ItemDef OID="TS.TSSEQ"
  Name="TSSEQ"
  DataType="integer"
  Length="8"
  Origin="Derived"
  Comment="Sequential number identifying records within each TSPARMCD"
  def:Label="Sequence Number"
/>
<ItemDef OID="TS.TSPARMCD"
  Name="TSPARMCD"
  DataType="text"
  Length="200"
  Origin="Assigned"
  Comment=" "
  def:Label="Trial Summary Parameter Short Name"
  >
  <def:ValueListRef ValueListOID="ValueList.TS.TSPARMCD"/>
</ItemDef>
<ItemDef OID="TS.TSPARM"
  Name="TSPARM"
  DataType="text"
  Length="200"
  Origin="Protocol"
  Comment=" "
  def:Label="Trial Summary Parameter"
/>
<ItemDef OID="TS.TSVAL"
  Name="TSVAL"
  DataType="text"
  Length="200"
  Origin="Protocol"
  Comment=" "
  def:Label="Parameter Value"
/>
<ItemDef OID="TV.STUDYID"
  Name="STUDYID"
  DataType="text"
  Length="12"
  Origin="CRF Page 7"
  Comment=" "
  def:Label="Study Identifier"
/>
<ItemDef OID="TV.DOMAIN"
  Name="DOMAIN"
  DataType="text"
  Length="2"
  Origin="Assigned"
  Comment=" "
  def:Label="Domain Abbreviation"
/>
<ItemDef OID="TV.VISITNUM"
  Name="VISITNUM"
  DataType="float"
  Length="8"
  SignificantDigits="1"
  Origin="Protocol"
  Comment=" "
  def:Label="Visit Number"
  def:DisplayFormat="8.1"
  >
  <CodeListRef CodeListOID="VISITNUM"/>
</ItemDef>
<ItemDef OID="TV.VISIT"
  Name="VISIT"
  DataType="text"
  Length="90"
  Origin="Protocol"
  Comment=" "
  def:Label="Visit Name"
  >
  <CodeListRef CodeListOID="VISIT"/>
</ItemDef>
<ItemDef OID="TV.VISITDY"
  Name="VISITDY"
  DataType="integer"
  Length="8"
  Origin="Protocol"
  Comment=" "
  def:Label="Planned Study Day of Visit"
/>
<ItemDef OID="TV.ARMCD"
  Name="ARMCD"
  DataType="text"
  Length="8"
  Origin="Protocol"
  Comment=" "
  def:Label="Planned Arm Code"
  >
  <CodeListRef CodeListOID="ARMCD"/>
</ItemDef>
<ItemDef OID="TV.ARM"
  Name="ARM"
  DataType="text"
  Length="20"
  Origin="Protocol"
  Comment=" "
  def:Label="Description of Planned Arm"
  >
  <CodeListRef CodeListOID="ARM"/>
</ItemDef>
<ItemDef OID="TV.TVSTRL"
  Name="TVSTRL"
  DataType="text"
  Length="200"
  Origin="Protocol"
  Comment=" "
  def:Label="Visit Start Rule"
/>
<ItemDef OID="TV.TVENRL"
  Name="TVENRL"
  DataType="text"
  Length="200"
  Origin="Protocol"
  Comment=" "
  def:Label="Visit End Rule"
/>
<ItemDef OID="VS.STUDYID"
  Name="STUDYID"
  DataType="text"
  Length="12"
  Origin="CRF Page 7"
  Comment=" "
  def:Label="Study Identifier"
/>
<ItemDef OID="VS.DOMAIN"
  Name="DOMAIN"
  DataType="text"
  Length="2"
  Origin="Assigned"
  Comment=" "
  def:Label="Domain Abbreviation"
/>
<ItemDef OID="VS.USUBJID"
  Name="USUBJID"
  DataType="text"
  Length="11"
  Origin="Derived"
  Comment="Concatenation of STUDYID, DM.SITEID and DM.SUBJID"
  def:Label="Unique Subject Identifier"
/>
<ItemDef OID="VS.VSSEQ"
  Name="VSSEQ"
  DataType="integer"
  Length="8"
  Origin="Derived"
  Comment="Sequential number identifying records within each USUBJID"
  def:Label="Sequence Number"
/>
<ItemDef OID="VS.VSTESTCD"
  Name="VSTESTCD"
  DataType="text"
  Length="6"
  Origin="CRF Pages 16, 17, 22, 23, 30, 33, 39, 45, 50, 55, 64, 70, 79, 85, 96, 102, 114, 135"
  Comment=" "
  def:Label="Vital Signs Test Short Name"
  >
  <def:ValueListRef ValueListOID="ValueList.VS.VSTESTCD"/>
</ItemDef>
<ItemDef OID="VS.VSTEST"
  Name="VSTEST"
  DataType="text"
  Length="24"
  Origin="CRF Pages 16, 17, 22, 23, 30, 33, 39, 45, 50, 55, 64, 70, 79, 85, 96, 102, 114, 135"
  Comment=" "
  def:Label="Vital Signs Test Name"
/>
<ItemDef OID="VS.VSPOS"
  Name="VSPOS"
  DataType="text"
  Length="8"
  Origin="CRF Pages 16, 17, 22, 23, 30, 33, 39, 45, 50, 55, 64, 70, 79, 85, 96, 102, 114, 135"
  Comment=" "
  def:Label="Vital Signs Position of Subject"
  >
  <CodeListRef CodeListOID="VSPOS"/>
</ItemDef>
<ItemDef OID="VS.VSORRES"
  Name="VSORRES"
  DataType="text"
  Length="5"
  Origin="CRF Pages 16, 17, 22, 23, 30, 33, 39, 45, 50, 55, 64, 70, 79, 85, 96, 102, 114, 135"
  Comment=" "
  def:Label="Result or Finding in Original Units"
/>
<ItemDef OID="VS.VSORRESU"
  Name="VSORRESU"
  DataType="text"
  Length="200"
  Origin="CRF Pages 16, 17, 22, 23, 30, 33, 39, 45, 50, 55, 64, 70, 79, 85, 96, 102, 114, 135"
  Comment=" "
  def:Label="Original Units"
  >
  <CodeListRef CodeListOID="VSUNIT"/>
</ItemDef>
<ItemDef OID="VS.VSSTRESC"
  Name="VSSTRESC"
  DataType="text"
  Length="6"
  Origin="Derived"
  Comment="VSORRES converted to standard unit"
  def:Label="Character Result/Finding in Std Format"
/>
<ItemDef OID="VS.VSSTRESN"
  Name="VSSTRESN"
  DataType="integer"
  Length="8"
  Origin="Derived"
  Comment="VSSTRESC converted to numeric"
  def:Label="Numeric Result/Finding in Standard Units"
/>
<ItemDef OID="VS.VSSTRESU"
  Name="VSSTRESU"
  DataType="text"
  Length="200"
  Origin="Assigned"
  Comment="Standard unit defined per parameter for summarizing analysis"
  def:Label="Standard Units"
  >
  <CodeListRef CodeListOID="VSUNIT"/>
</ItemDef>
<ItemDef OID="VS.VSSTAT"
  Name="VSSTAT"
  DataType="text"
  Length="8"
  Origin="CRF Pages 16, 17, 22, 23, 30, 33, 39, 45, 50, 55, 64, 70, 79, 85, 96, 102, 114, 135"
  Comment=" "
  def:Label="Completion Status"
  >
  <CodeListRef CodeListOID="ND"/>
</ItemDef>
<ItemDef OID="VS.VSLOC"
  Name="VSLOC"
  DataType="text"
  Length="200"
  Origin="CRF Pages 17, 23, 30, 33, 45, 50, 55, 64, 70, 79, 85, 96, 102, 114, 135"
  Comment=" "
  def:Label="Location of Vital Signs Measurement"
  >
  <CodeListRef CodeListOID="VSLOC"/>
</ItemDef>
<ItemDef OID="VS.VSBLFL"
  Name="VSBLFL"
  DataType="text"
  Length="1"
  Origin="Derived"
  Comment="If VISIT=&quot;BASELINE&quot; then VSBLFL=&quot;Y&quot;"
  def:Label="Baseline Flag"
  >
  <CodeListRef CodeListOID="Y_BLANK"/>
</ItemDef>
<ItemDef OID="VS.VISITNUM"
  Name="VISITNUM"
  DataType="float"
  Length="8"
  SignificantDigits="1"
  Origin="CRF Pages 16, 17, 22, 23, 30, 33, 39, 45, 50, 55, 64, 70, 79, 85, 96, 102, 114, 135"
  Comment=" "
  def:Label="Visit Number"
  def:DisplayFormat="8.1"
  >
  <CodeListRef CodeListOID="VISITNUM"/>
</ItemDef>
<ItemDef OID="VS.VISIT"
  Name="VISIT"
  DataType="text"
  Length="19"
  Origin="CRF Pages 16, 17, 22, 23, 30, 33, 39, 45, 50, 55, 64, 70, 79, 85, 96, 102, 114, 135"
  Comment=" "
  def:Label="Visit Name"
  >
  <CodeListRef CodeListOID="VISIT"/>
</ItemDef>
<ItemDef OID="VS.VISITDY"
  Name="VISITDY"
  DataType="integer"
  Length="8"
  Origin="Derived"
  Comment="TV.VISITDY"
  def:Label="Planned Study Day of Visit"
/>
<ItemDef OID="VS.VSDTC"
  Name="VSDTC"
  DataType="date"
  Length="10"
  Origin="CRF Pages 16, 17, 22, 23, 30, 33, 39, 45, 50, 55, 64, 70, 79, 85, 96, 102, 114, 135"
  Comment=" "
  def:Label="Date/Time of Measurements"
/>
<ItemDef OID="VS.VSDY"
  Name="VSDY"
  DataType="integer"
  Length="8"
  Origin="Derived"
  def:Label="Study Day of Vital Signs"
  def:ComputationMethodOID="COMPMETHOD.STUDY_DAY"
/>
<ItemDef OID="VS.VSTPT"
  Name="VSTPT"
  DataType="text"
  Length="30"
  Origin="CRF Pages 16, 17, 22, 23, 30, 33, 39, 45, 50, 55, 64, 70, 79, 85, 96, 102, 114, 135"
  Comment=" "
  def:Label="Planned Time Point Name"
  >
  <CodeListRef CodeListOID="VSTPT"/>
</ItemDef>
<ItemDef OID="VS.VSTPTNUM"
  Name="VSTPTNUM"
  DataType="integer"
  Length="8"
  Origin="CRF Pages 16, 17, 22, 23, 30, 33, 39, 45, 50, 55, 64, 70, 79, 85, 96, 102, 114, 135"
  Comment=" "
  def:Label="Planned Time Point Number"
  >
  <CodeListRef CodeListOID="VSTPTNUM"/>
</ItemDef>
<ItemDef OID="VS.VSELTM"
  Name="VSELTM"
  DataType="text"
  Length="4"
  Origin="Derived"
  Comment="VSTPT expressed in the ISO 8601 format for durations"
  def:Label="Planned Elapsed Time from Time Point Ref"
/>
<ItemDef OID="VS.VSTPTREF"
  Name="VSTPTREF"
  DataType="text"
  Length="16"
  Origin="Assigned"
  Comment=" "
  def:Label="Time Point Reference"
  >
  <CodeListRef CodeListOID="VSTPTREF"/>
</ItemDef>
<ItemDef OID="LB.LBCAT.NULL"
  Name="NULL"
  DataType="text"
  Length="200"
  Origin="eDT"
  Comment=" "
  def:Label="NULL"
  >
  <def:ValueListRef ValueListOID="ValueList.LB.LBCAT.NULL.LBTESTCD"/>
</ItemDef>
<ItemDef OID="LB.LBCAT.CHEMISTRY"
  Name="CHEMISTRY"
  DataType="text"
  Length="200"
  Origin="eDT"
  Comment=" "
  def:Label="CHEMISTRY"
  >
  <def:ValueListRef ValueListOID="ValueList.LB.LBCAT.CHEMISTRY.LBTESTCD"/>
</ItemDef>
<ItemDef OID="LB.LBCAT.HEMATOLOGY"
  Name="HEMATOLOGY"
  DataType="text"
  Length="200"
  Origin="eDT"
  Comment=" "
  def:Label="HEMATOLOGY"
  >
  <def:ValueListRef ValueListOID="ValueList.LB.LBCAT.HEMATOLOGY.LBTESTCD"/>
</ItemDef>
<ItemDef OID="LB.LBCAT.OTHER"
  Name="OTHER"
  DataType="text"
  Length="200"
  Origin="eDT"
  Comment=" "
  def:Label="OTHER"
  >
  <def:ValueListRef ValueListOID="ValueList.LB.LBCAT.OTHER.LBTESTCD"/>
</ItemDef>
<ItemDef OID="LB.LBCAT.URINALYSIS"
  Name="URINALYSIS"
  DataType="text"
  Length="200"
  Origin="eDT"
  Comment=" "
  def:Label="URINALYSIS"
  >
  <def:ValueListRef ValueListOID="ValueList.LB.LBCAT.URINALYSIS.LBTESTCD"/>
</ItemDef>
<ItemDef OID="LB.LBCAT.CHEMISTRY.LBTESTCD.ALB"
  Name="ALB"
  DataType="integer"
  Length="8"
  Origin="eDT"
  Comment=" "
  def:Label="Albumin"
/>
<ItemDef OID="LB.LBCAT.CHEMISTRY.LBTESTCD.ALP"
  Name="ALP"
  DataType="integer"
  Length="8"
  Origin="eDT"
  Comment=" "
  def:Label="Alkaline Phosphatase"
/>
<ItemDef OID="LB.LBCAT.CHEMISTRY.LBTESTCD.ALT"
  Name="ALT"
  DataType="integer"
  Length="8"
  Origin="eDT"
  Comment=" "
  def:Label="Alanine Aminotransferase"
/>
<ItemDef OID="LB.LBCAT.CHEMISTRY.LBTESTCD.AST"
  Name="AST"
  DataType="integer"
  Length="8"
  Origin="eDT"
  Comment=" "
  def:Label="Aspartate Aminotransferase"
/>
<ItemDef OID="LB.LBCAT.CHEMISTRY.LBTESTCD.BILI"
  Name="BILI"
  DataType="float"
  Length="8"
  SignificantDigits="2"
  Origin="eDT"
  Comment=" "
  def:Label="Bilirubin"
  def:DisplayFormat="12.2"
/>
<ItemDef OID="LB.LBCAT.CHEMISTRY.LBTESTCD.BUN"
  Name="BUN"
  DataType="float"
  Length="8"
  SignificantDigits="3"
  Origin="eDT"
  Comment=" "
  def:Label="Blood Urea Nitrogen"
  def:DisplayFormat="12.3"
/>
<ItemDef OID="LB.LBCAT.CHEMISTRY.LBTESTCD.CA"
  Name="CA"
  DataType="float"
  Length="8"
  SignificantDigits="5"
  Origin="eDT"
  Comment=" "
  def:Label="Calcium"
  def:DisplayFormat="12.5"
/>
<ItemDef OID="LB.LBCAT.CHEMISTRY.LBTESTCD.CHOL"
  Name="CHOL"
  DataType="float"
  Length="8"
  SignificantDigits="5"
  Origin="eDT"
  Comment=" "
  def:Label="Cholesterol"
  def:DisplayFormat="12.5"
/>
<ItemDef OID="LB.LBCAT.CHEMISTRY.LBTESTCD.CK"
  Name="CK"
  DataType="integer"
  Length="8"
  Origin="eDT"
  Comment=" "
  def:Label="Creatine Kinase"
/>
<ItemDef OID="LB.LBCAT.CHEMISTRY.LBTESTCD.CL"
  Name="CL"
  DataType="integer"
  Length="8"
  Origin="eDT"
  Comment=" "
  def:Label="Chloride"
/>
<ItemDef OID="LB.LBCAT.CHEMISTRY.LBTESTCD.CREAT"
  Name="CREAT"
  DataType="float"
  Length="8"
  SignificantDigits="2"
  Origin="eDT"
  Comment=" "
  def:Label="Creatinine"
  def:DisplayFormat="12.2"
/>
<ItemDef OID="LB.LBCAT.CHEMISTRY.LBTESTCD.GGT"
  Name="GGT"
  DataType="integer"
  Length="8"
  Origin="eDT"
  Comment=" "
  def:Label="Gamma Glutamyl Transferase"
/>
<ItemDef OID="LB.LBCAT.CHEMISTRY.LBTESTCD.GLUC"
  Name="GLUC"
  DataType="float"
  Length="8"
  SignificantDigits="5"
  Origin="eDT"
  Comment=" "
  def:Label="Glucose"
  def:DisplayFormat="12.5"
/>
<ItemDef OID="LB.LBCAT.CHEMISTRY.LBTESTCD.K"
  Name="K"
  DataType="float"
  Length="8"
  SignificantDigits="1"
  Origin="eDT"
  Comment=" "
  def:Label="Potassium"
  def:DisplayFormat="12.1"
/>
<ItemDef OID="LB.LBCAT.CHEMISTRY.LBTESTCD.PHOS"
  Name="PHOS"
  DataType="float"
  Length="8"
  SignificantDigits="5"
  Origin="eDT"
  Comment=" "
  def:Label="Phosphate"
  def:DisplayFormat="12.5"
/>
<ItemDef OID="LB.LBCAT.CHEMISTRY.LBTESTCD.PROT"
  Name="PROT"
  DataType="integer"
  Length="8"
  Origin="eDT"
  Comment=" "
  def:Label="Protein"
/>
<ItemDef OID="LB.LBCAT.CHEMISTRY.LBTESTCD.SODIUM"
  Name="SODIUM"
  DataType="integer"
  Length="8"
  Origin="eDT"
  Comment=" "
  def:Label="Sodium"
/>
<ItemDef OID="LB.LBCAT.CHEMISTRY.LBTESTCD.URATE"
  Name="URATE"
  DataType="float"
  Length="8"
  SignificantDigits="3"
  Origin="eDT"
  Comment=" "
  def:Label="Urate"
  def:DisplayFormat="12.3"
/>
<ItemDef OID="LB.LBCAT.HEMATOLOGY.LBTESTCD.ANISO"
  Name="ANISO"
  DataType="integer"
  Length="8"
  Origin="eDT"
  Comment=" "
  def:Label="Anisocytes"
/>
<ItemDef OID="LB.LBCAT.HEMATOLOGY.LBTESTCD.BASO"
  Name="BASO"
  DataType="float"
  Length="8"
  SignificantDigits="2"
  Origin="eDT"
  Comment=" "
  def:Label="Basophils"
  def:DisplayFormat="12.2"
/>
<ItemDef OID="LB.LBCAT.HEMATOLOGY.LBTESTCD.EOS"
  Name="EOS"
  DataType="float"
  Length="8"
  SignificantDigits="2"
  Origin="eDT"
  Comment=" "
  def:Label="Eosinophils"
  def:DisplayFormat="12.2"
/>
<ItemDef OID="LB.LBCAT.HEMATOLOGY.LBTESTCD.HCT"
  Name="HCT"
  DataType="float"
  Length="8"
  SignificantDigits="2"
  Origin="eDT"
  Comment=" "
  def:Label="Hematocrit"
  def:DisplayFormat="12.2"
/>
<ItemDef OID="LB.LBCAT.HEMATOLOGY.LBTESTCD.HGB"
  Name="HGB"
  DataType="float"
  Length="8"
  SignificantDigits="5"
  Origin="eDT"
  Comment=" "
  def:Label="Hemoglobin"
  def:DisplayFormat="12.5"
/>
<ItemDef OID="LB.LBCAT.HEMATOLOGY.LBTESTCD.LYM"
  Name="LYM"
  DataType="float"
  Length="8"
  SignificantDigits="2"
  Origin="eDT"
  Comment=" "
  def:Label="Lymphocytes"
  def:DisplayFormat="12.2"
/>
<ItemDef OID="LB.LBCAT.HEMATOLOGY.LBTESTCD.MACROCY"
  Name="MACROCY"
  DataType="integer"
  Length="8"
  Origin="eDT"
  Comment=" "
  def:Label="Macrocytes"
/>
<ItemDef OID="LB.LBCAT.HEMATOLOGY.LBTESTCD.MCH"
  Name="MCH"
  DataType="float"
  Length="8"
  SignificantDigits="5"
  Origin="eDT"
  Comment=" "
  def:Label="Ery. Mean Corpuscular Hemoglobin"
  def:DisplayFormat="12.5"
/>
<ItemDef OID="LB.LBCAT.HEMATOLOGY.LBTESTCD.MCHC"
  Name="MCHC"
  DataType="float"
  Length="8"
  SignificantDigits="4"
  Origin="eDT"
  Comment=" "
  def:Label="Ery. Mean Corpuscular HGB Concentration"
  def:DisplayFormat="12.4"
/>
<ItemDef OID="LB.LBCAT.HEMATOLOGY.LBTESTCD.MCV"
  Name="MCV"
  DataType="integer"
  Length="8"
  Origin="eDT"
  Comment=" "
  def:Label="Ery. Mean Corpuscular Volume"
/>
<ItemDef OID="LB.LBCAT.HEMATOLOGY.LBTESTCD.MICROCY"
  Name="MICROCY"
  DataType="integer"
  Length="8"
  Origin="eDT"
  Comment=" "
  def:Label="Microcytes"
/>
<ItemDef OID="LB.LBCAT.HEMATOLOGY.LBTESTCD.MONO"
  Name="MONO"
  DataType="float"
  Length="8"
  SignificantDigits="2"
  Origin="eDT"
  Comment=" "
  def:Label="Monocytes"
  def:DisplayFormat="12.2"
/>
<ItemDef OID="LB.LBCAT.HEMATOLOGY.LBTESTCD.PLAT"
  Name="PLAT"
  DataType="integer"
  Length="8"
  Origin="eDT"
  Comment=" "
  def:Label="Platelet"
/>
<ItemDef OID="LB.LBCAT.HEMATOLOGY.LBTESTCD.POIKILO"
  Name="POIKILO"
  DataType="integer"
  Length="8"
  Origin="eDT"
  Comment=" "
  def:Label="Poikilocytes"
/>
<ItemDef OID="LB.LBCAT.HEMATOLOGY.LBTESTCD.POLYCHR"
  Name="POLYCHR"
  DataType="integer"
  Length="8"
  Origin="eDT"
  Comment=" "
  def:Label="Polychromasia"
/>
<ItemDef OID="LB.LBCAT.HEMATOLOGY.LBTESTCD.RBC"
  Name="RBC"
  DataType="float"
  Length="8"
  SignificantDigits="1"
  Origin="eDT"
  Comment=" "
  def:Label="Erythrocytes"
  def:DisplayFormat="12.1"
/>
<ItemDef OID="LB.LBCAT.HEMATOLOGY.LBTESTCD.WBC"
  Name="WBC"
  DataType="float"
  Length="8"
  SignificantDigits="2"
  Origin="eDT"
  Comment=" "
  def:Label="Leukocytes"
  def:DisplayFormat="12.2"
/>
<ItemDef OID="LB.LBCAT.NULL.LBTESTCD.HBA1C"
  Name="HBA1C"
  DataType="float"
  Length="8"
  SignificantDigits="3"
  Origin="eDT"
  Comment=" "
  def:Label="Hemoglobin A1C"
  def:DisplayFormat="12.3"
/>
<ItemDef OID="LB.LBCAT.OTHER.LBTESTCD.TSH"
  Name="TSH"
  DataType="float"
  Length="8"
  SignificantDigits="2"
  Origin="eDT"
  Comment=" "
  def:Label="Thyrotropin"
  def:DisplayFormat="12.2"
/>
<ItemDef OID="LB.LBCAT.OTHER.LBTESTCD.VITB12"
  Name="VITB12"
  DataType="float"
  Length="8"
  SignificantDigits="4"
  Origin="eDT"
  Comment=" "
  def:Label="Vitamin B12"
  def:DisplayFormat="12.4"
/>
<ItemDef OID="LB.LBCAT.URINALYSIS.LBTESTCD.COLOR"
  Name="COLOR"
  DataType="text"
  Length="1"
  Origin="eDT"
  Comment=" "
  def:Label="Color"
  >
  <CodeListRef CodeListOID="COLOR"/>
</ItemDef>
<ItemDef OID="LB.LBCAT.URINALYSIS.LBTESTCD.KETONES"
  Name="KETONES"
  DataType="integer"
  Length="8"
  Origin="eDT"
  Comment=" "
  def:Label="Ketones"
/>
<ItemDef OID="LB.LBCAT.URINALYSIS.LBTESTCD.PH"
  Name="PH"
  DataType="integer"
  Length="8"
  Origin="eDT"
  Comment=" "
  def:Label="pH"
/>
<ItemDef OID="LB.LBCAT.URINALYSIS.LBTESTCD.SPGRAV"
  Name="SPGRAV"
  DataType="float"
  Length="8"
  SignificantDigits="3"
  Origin="eDT"
  Comment=" "
  def:Label="Specific Gravity"
  def:DisplayFormat="12.3"
/>
<ItemDef OID="LB.LBCAT.URINALYSIS.LBTESTCD.UROBIL"
  Name="UROBIL"
  DataType="integer"
  Length="8"
  Origin="eDT"
  Comment=" "
  def:Label="Urobilinogen"
/>
<ItemDef OID="QS.QSTESTCD.ACITM01"
  Name="ACITM01"
  DataType="float"
  Length="8"
  SignificantDigits="2"
  Origin="CRF Pages 26, 59, 74, 91, 109, 130"
  Comment=" "
  def:Label="WORD RECALL TASK"
  def:DisplayFormat="12.2"
/>
<ItemDef OID="QS.QSTESTCD.ACITM02"
  Name="ACITM02"
  DataType="integer"
  Length="8"
  Origin="CRF Pages 26, 59, 74, 91, 109, 130"
  Comment=" "
  def:Label="NAMING OBJECTS AND FINGERS (REFER TO 5 C"
/>
<ItemDef OID="QS.QSTESTCD.ACITM03"
  Name="ACITM03"
  DataType="integer"
  Length="8"
  Origin="CRF Pages 26, 59, 74, 91, 109, 130"
  Comment=" "
  def:Label="DELAYED WORD RECALL"
/>
<ItemDef OID="QS.QSTESTCD.ACITM04"
  Name="ACITM04"
  DataType="integer"
  Length="8"
  Origin="CRF Pages 26, 59, 74, 91, 109, 130"
  Comment=" "
  def:Label="COMMANDS"
/>
<ItemDef OID="QS.QSTESTCD.ACITM05"
  Name="ACITM05"
  DataType="integer"
  Length="8"
  Origin="CRF Pages 26, 59, 74, 91, 109, 130"
  Comment=" "
  def:Label="CONSTRUCTIONAL PRAXIS"
/>
<ItemDef OID="QS.QSTESTCD.ACITM06"
  Name="ACITM06"
  DataType="integer"
  Length="8"
  Origin="CRF Pages 26, 59, 74, 91, 109, 130"
  Comment=" "
  def:Label="IDEATIONAL PRAXIS"
/>
<ItemDef OID="QS.QSTESTCD.ACITM07"
  Name="ACITM07"
  DataType="integer"
  Length="8"
  Origin="CRF Pages 26, 59, 74, 91, 109, 130"
  Comment=" "
  def:Label="ORIENTATION"
/>
<ItemDef OID="QS.QSTESTCD.ACITM08"
  Name="ACITM08"
  DataType="integer"
  Length="8"
  Origin="CRF Pages 26, 59, 74, 91, 109, 130"
  Comment=" "
  def:Label="WORD RECOGNITION"
/>
<ItemDef OID="QS.QSTESTCD.ACITM09"
  Name="ACITM09"
  DataType="integer"
  Length="8"
  Origin="CRF Pages 26, 59, 74, 91, 109, 130"
  Comment=" "
  def:Label="ATTENTION/VISUAL SEARCH TASK"
/>
<ItemDef OID="QS.QSTESTCD.ACITM10"
  Name="ACITM10"
  DataType="float"
  Length="8"
  SignificantDigits="1"
  Origin="CRF Pages 26, 59, 74, 91, 109, 130"
  Comment=" "
  def:Label="MAZE SOLUTION"
  def:DisplayFormat="12.1"
/>
<ItemDef OID="QS.QSTESTCD.ACITM11"
  Name="ACITM11"
  DataType="integer"
  Length="8"
  Origin="CRF Pages 26, 59, 74, 91, 109, 130"
  Comment=" "
  def:Label="SPOKEN LANGUAGE ABILITY"
/>
<ItemDef OID="QS.QSTESTCD.ACITM12"
  Name="ACITM12"
  DataType="integer"
  Length="8"
  Origin="CRF Pages 26, 59, 74, 91, 109, 130"
  Comment=" "
  def:Label="COMPREHENSION OF SPOKEN LANGUAGE"
/>
<ItemDef OID="QS.QSTESTCD.ACITM13"
  Name="ACITM13"
  DataType="integer"
  Length="8"
  Origin="CRF Pages 26, 59, 74, 91, 109, 130"
  Comment=" "
  def:Label="WORD FINDING DIFFICULTY IN SPONTANEOUS S"
/>
<ItemDef OID="QS.QSTESTCD.ACITM14"
  Name="ACITM14"
  DataType="integer"
  Length="8"
  Origin="CRF Pages 26, 59, 74, 91, 109, 130"
  Comment=" "
  def:Label="RECALL OF TEST INSTRUCTIONS"
/>
<ItemDef OID="QS.QSTESTCD.ACTOT"
  Name="ACTOT"
  DataType="float"
  Length="8"
  SignificantDigits="1"
  Origin="Derived"
  Comment="see SAP"
  def:Label="ADAS-COG(11) Subscore"
  def:DisplayFormat="12.1"
/>
<ItemDef OID="QS.QSTESTCD.CIBIC"
  Name="CIBIC"
  DataType="integer"
  Length="8"
  Origin="CRF Pages 60, 75, 92, 110, 131"
  Comment=" "
  def:Label="EXTENT OF CHANGE, IF ANY, SINCE BASELINE"
  >
  <CodeListRef CodeListOID="CIBIC"/>
</ItemDef>
<ItemDef OID="QS.QSTESTCD.DAITM01"
  Name="DAITM01"
  DataType="integer"
  Length="8"
  Origin="CRF Pages 28, 62, 77, 94, 112, 133, 156"
  Comment=" "
  def:Label="UNDERTAKE TO WASH HIMSELF/HERSELF"
  >
  <CodeListRef CodeListOID="NYNAN"/>
</ItemDef>
<ItemDef OID="QS.QSTESTCD.DAITM02"
  Name="DAITM02"
  DataType="integer"
  Length="8"
  Origin="CRF Pages 28, 62, 77, 94, 112, 133, 156"
  Comment=" "
  def:Label="UNDERTAKE TO BRUSH HIS/HER TEETH"
  >
  <CodeListRef CodeListOID="NYNAN"/>
</ItemDef>
<ItemDef OID="QS.QSTESTCD.DAITM03"
  Name="DAITM03"
  DataType="integer"
  Length="8"
  Origin="CRF Pages 28, 62, 77, 94, 112, 133, 156"
  Comment=" "
  def:Label="DECIDE TO CARE FOR HIS/HER HAIR"
  >
  <CodeListRef CodeListOID="NYNAN"/>
</ItemDef>
<ItemDef OID="QS.QSTESTCD.DAITM04"
  Name="DAITM04"
  DataType="integer"
  Length="8"
  Origin="CRF Pages 28, 62, 77, 94, 112, 133, 156"
  Comment=" "
  def:Label="PREPARE FOR WASHING, TAKING A BATH"
  >
  <CodeListRef CodeListOID="NYNAN"/>
</ItemDef>
<ItemDef OID="QS.QSTESTCD.DAITM05"
  Name="DAITM05"
  DataType="integer"
  Length="8"
  Origin="CRF Pages 28, 62, 77, 94, 112, 133, 156"
  Comment=" "
  def:Label="WASH AND DRY COMPLETELY SAFELY"
  >
  <CodeListRef CodeListOID="NYNAN"/>
</ItemDef>
<ItemDef OID="QS.QSTESTCD.DAITM06"
  Name="DAITM06"
  DataType="integer"
  Length="8"
  Origin="CRF Pages 28, 62, 77, 94, 112, 133, 156"
  Comment=" "
  def:Label="BRUSH HIS/HER TEETH"
  >
  <CodeListRef CodeListOID="NYNAN"/>
</ItemDef>
<ItemDef OID="QS.QSTESTCD.DAITM07"
  Name="DAITM07"
  DataType="integer"
  Length="8"
  Origin="CRF Pages 28, 62, 77, 94, 112, 133, 156"
  Comment=" "
  def:Label="CARE FOR HIS/HER HAIR"
  >
  <CodeListRef CodeListOID="NYNAN"/>
</ItemDef>
<ItemDef OID="QS.QSTESTCD.DAITM08"
  Name="DAITM08"
  DataType="integer"
  Length="8"
  Origin="CRF Pages 28, 62, 77, 94, 112, 133, 156"
  Comment=" "
  def:Label="UNDERTAKE TO DRESS HIMSELF/HERSELF"
  >
  <CodeListRef CodeListOID="NYNAN"/>
</ItemDef>
<ItemDef OID="QS.QSTESTCD.DAITM09"
  Name="DAITM09"
  DataType="integer"
  Length="8"
  Origin="CRF Pages 28, 62, 77, 94, 112, 133, 156"
  Comment=" "
  def:Label="CHOOSE APPROPRIATE CLOTHING"
  >
  <CodeListRef CodeListOID="NYNAN"/>
</ItemDef>
<ItemDef OID="QS.QSTESTCD.DAITM10"
  Name="DAITM10"
  DataType="integer"
  Length="8"
  Origin="CRF Pages 28, 62, 77, 94, 112, 133, 156"
  Comment=" "
  def:Label="DRESS HIMSELF/HERSELF"
  >
  <CodeListRef CodeListOID="NYNAN"/>
</ItemDef>
<ItemDef OID="QS.QSTESTCD.DAITM11"
  Name="DAITM11"
  DataType="integer"
  Length="8"
  Origin="CRF Pages 28, 62, 77, 94, 112, 133, 156"
  Comment=" "
  def:Label="DRESS HIMSELF/HERSELF COMPLETELY"
  >
  <CodeListRef CodeListOID="NYNAN"/>
</ItemDef>
<ItemDef OID="QS.QSTESTCD.DAITM12"
  Name="DAITM12"
  DataType="integer"
  Length="8"
  Origin="CRF Pages 28, 62, 77, 94, 112, 133, 156"
  Comment=" "
  def:Label="UNDRESS HIMSELF/HERSELF COMPLETELY"
  >
  <CodeListRef CodeListOID="NYNAN"/>
</ItemDef>
<ItemDef OID="QS.QSTESTCD.DAITM13"
  Name="DAITM13"
  DataType="integer"
  Length="8"
  Origin="CRF Pages 28, 62, 77, 94, 112, 133, 156"
  Comment=" "
  def:Label="DECIDE TO USE THE TOILET AT APPROPRIATE"
  >
  <CodeListRef CodeListOID="NYNAN"/>
</ItemDef>
<ItemDef OID="QS.QSTESTCD.DAITM14"
  Name="DAITM14"
  DataType="integer"
  Length="8"
  Origin="CRF Pages 28, 62, 77, 94, 112, 133, 156"
  Comment=" "
  def:Label="USE THE TOILET WITHOUT &quot;ACCIDENTS&quot;"
  >
  <CodeListRef CodeListOID="NYNAN"/>
</ItemDef>
<ItemDef OID="QS.QSTESTCD.DAITM15"
  Name="DAITM15"
  DataType="integer"
  Length="8"
  Origin="CRF Pages 28, 62, 77, 94, 112, 133, 156"
  Comment=" "
  def:Label="DECIDE THAT HE/SHE NEEDS TO EAT"
  >
  <CodeListRef CodeListOID="NYNAN"/>
</ItemDef>
<ItemDef OID="QS.QSTESTCD.DAITM16"
  Name="DAITM16"
  DataType="integer"
  Length="8"
  Origin="CRF Pages 28, 62, 77, 94, 112, 133, 156"
  Comment=" "
  def:Label="CHOOSE APPROPRIATE UTENSILS"
  >
  <CodeListRef CodeListOID="NYNAN"/>
</ItemDef>
<ItemDef OID="QS.QSTESTCD.DAITM17"
  Name="DAITM17"
  DataType="integer"
  Length="8"
  Origin="CRF Pages 28, 62, 77, 94, 112, 133, 156"
  Comment=" "
  def:Label="EAT HIS/HER MEALS AT A NORMAL PACE"
  >
  <CodeListRef CodeListOID="NYNAN"/>
</ItemDef>
<ItemDef OID="QS.QSTESTCD.DAITM18"
  Name="DAITM18"
  DataType="integer"
  Length="8"
  Origin="CRF Pages 28, 62, 77, 94, 112, 133, 156"
  Comment=" "
  def:Label="UNDERTAKE TO PREPARE A LIGHT MEAL"
  >
  <CodeListRef CodeListOID="NYNAN"/>
</ItemDef>
<ItemDef OID="QS.QSTESTCD.DAITM19"
  Name="DAITM19"
  DataType="integer"
  Length="8"
  Origin="CRF Pages 28, 62, 77, 94, 112, 133, 156"
  Comment=" "
  def:Label="ADEQUATELY PLAN A LIGHT MEAL OR SNACK"
  >
  <CodeListRef CodeListOID="NYNAN"/>
</ItemDef>
<ItemDef OID="QS.QSTESTCD.DAITM20"
  Name="DAITM20"
  DataType="integer"
  Length="8"
  Origin="CRF Pages 28, 62, 77, 94, 112, 133, 156"
  Comment=" "
  def:Label="PREPARE OR COOK A LIGHT MEAL OR A SNACK"
  >
  <CodeListRef CodeListOID="NYNAN"/>
</ItemDef>
<ItemDef OID="QS.QSTESTCD.DAITM21"
  Name="DAITM21"
  DataType="integer"
  Length="8"
  Origin="CRF Pages 29, 63, 78, 95, 113, 134, 157"
  Comment=" "
  def:Label="ATTEMPT TO TELEPHONE SOMEONE"
  >
  <CodeListRef CodeListOID="NYNAN"/>
</ItemDef>
<ItemDef OID="QS.QSTESTCD.DAITM22"
  Name="DAITM22"
  DataType="integer"
  Length="8"
  Origin="CRF Pages 29, 63, 78, 95, 113, 134, 157"
  Comment=" "
  def:Label="FIND AND DIAL A TELEPHONE NUMBER CORRECT"
  >
  <CodeListRef CodeListOID="NYNAN"/>
</ItemDef>
<ItemDef OID="QS.QSTESTCD.DAITM23"
  Name="DAITM23"
  DataType="integer"
  Length="8"
  Origin="CRF Pages 29, 63, 78, 95, 113, 134, 157"
  Comment=" "
  def:Label="CARRY OUT A TELEPHONE CONVERSATION"
  >
  <CodeListRef CodeListOID="NYNAN"/>
</ItemDef>
<ItemDef OID="QS.QSTESTCD.DAITM24"
  Name="DAITM24"
  DataType="integer"
  Length="8"
  Origin="CRF Pages 29, 63, 78, 95, 113, 134, 157"
  Comment=" "
  def:Label="WRITE AND CONVEY A TELEPHONE MESSAGE"
  >
  <CodeListRef CodeListOID="NYNAN"/>
</ItemDef>
<ItemDef OID="QS.QSTESTCD.DAITM25"
  Name="DAITM25"
  DataType="integer"
  Length="8"
  Origin="CRF Pages 29, 63, 78, 95, 113, 134, 157"
  Comment=" "
  def:Label="UNDERTAKE TO GO OUT"
  >
  <CodeListRef CodeListOID="NYNAN"/>
</ItemDef>
<ItemDef OID="QS.QSTESTCD.DAITM26"
  Name="DAITM26"
  DataType="integer"
  Length="8"
  Origin="CRF Pages 29, 63, 78, 95, 113, 134, 157"
  Comment=" "
  def:Label="ADEQUATELY ORGANIZE AN OUTING"
  >
  <CodeListRef CodeListOID="NYNAN"/>
</ItemDef>
<ItemDef OID="QS.QSTESTCD.DAITM27"
  Name="DAITM27"
  DataType="integer"
  Length="8"
  Origin="CRF Pages 29, 63, 78, 95, 113, 134, 157"
  Comment=" "
  def:Label="GO OUT AND REACH A FAMILIAR DESTINATION"
  >
  <CodeListRef CodeListOID="NYNAN"/>
</ItemDef>
<ItemDef OID="QS.QSTESTCD.DAITM28"
  Name="DAITM28"
  DataType="integer"
  Length="8"
  Origin="CRF Pages 29, 63, 78, 95, 113, 134, 157"
  Comment=" "
  def:Label="SAFELY TAKE CAR, BUS, TAXI"
  >
  <CodeListRef CodeListOID="NYNAN"/>
</ItemDef>
<ItemDef OID="QS.QSTESTCD.DAITM29"
  Name="DAITM29"
  DataType="integer"
  Length="8"
  Origin="CRF Pages 29, 63, 78, 95, 113, 134, 157"
  Comment=" "
  def:Label="RETURN FROM THE STORE"
  >
  <CodeListRef CodeListOID="NYNAN"/>
</ItemDef>
<ItemDef OID="QS.QSTESTCD.DAITM30"
  Name="DAITM30"
  DataType="integer"
  Length="8"
  Origin="CRF Pages 29, 63, 78, 95, 113, 134, 157"
  Comment=" "
  def:Label="INTEREST IN HIS/HER PERSONAL AFFAIRS"
  >
  <CodeListRef CodeListOID="NYNAN"/>
</ItemDef>
<ItemDef OID="QS.QSTESTCD.DAITM31"
  Name="DAITM31"
  DataType="integer"
  Length="8"
  Origin="CRF Pages 29, 63, 78, 95, 113, 134, 157"
  Comment=" "
  def:Label="PAY HIS/HER BILLS"
  >
  <CodeListRef CodeListOID="NYNAN"/>
</ItemDef>
<ItemDef OID="QS.QSTESTCD.DAITM32"
  Name="DAITM32"
  DataType="integer"
  Length="8"
  Origin="CRF Pages 29, 63, 78, 95, 113, 134, 157"
  Comment=" "
  def:Label="ORGANIZE HIS/HER CORRESPONDENCE"
  >
  <CodeListRef CodeListOID="NYNAN"/>
</ItemDef>
<ItemDef OID="QS.QSTESTCD.DAITM33"
  Name="DAITM33"
  DataType="integer"
  Length="8"
  Origin="CRF Pages 29, 63, 78, 95, 113, 134, 157"
  Comment=" "
  def:Label="HANDLE ADEQUATELY HIS/HER MONEY"
  >
  <CodeListRef CodeListOID="NYNAN"/>
</ItemDef>
<ItemDef OID="QS.QSTESTCD.DAITM34"
  Name="DAITM34"
  DataType="integer"
  Length="8"
  Origin="CRF Pages 29, 63, 78, 95, 113, 134, 157"
  Comment=" "
  def:Label="DECIDE TO TAKE HIS/HER MEDICATIONS"
  >
  <CodeListRef CodeListOID="NYNAN"/>
</ItemDef>
<ItemDef OID="QS.QSTESTCD.DAITM35"
  Name="DAITM35"
  DataType="integer"
  Length="8"
  Origin="CRF Pages 29, 63, 78, 95, 113, 134, 157"
  Comment=" "
  def:Label="TAKE HIS/HER MEDICATIONS AS PRESCRIBED"
  >
  <CodeListRef CodeListOID="NYNAN"/>
</ItemDef>
<ItemDef OID="QS.QSTESTCD.DAITM36"
  Name="DAITM36"
  DataType="integer"
  Length="8"
  Origin="CRF Pages 29, 63, 78, 95, 113, 134, 157"
  Comment=" "
  def:Label="SHOW AN INTEREST IN LEISURE ACTIVITY"
  >
  <CodeListRef CodeListOID="NYNAN"/>
</ItemDef>
<ItemDef OID="QS.QSTESTCD.DAITM37"
  Name="DAITM37"
  DataType="integer"
  Length="8"
  Origin="CRF Pages 29, 63, 78, 95, 113, 134, 157"
  Comment=" "
  def:Label="TAKE AN INTEREST IN HOUSEHOLD CHORES"
  >
  <CodeListRef CodeListOID="NYNAN"/>
</ItemDef>
<ItemDef OID="QS.QSTESTCD.DAITM38"
  Name="DAITM38"
  DataType="integer"
  Length="8"
  Origin="CRF Pages 29, 63, 78, 95, 113, 134, 157"
  Comment=" "
  def:Label="PLAN AND ORGANIZE HOUSEHOLD CHORES"
  >
  <CodeListRef CodeListOID="NYNAN"/>
</ItemDef>
<ItemDef OID="QS.QSTESTCD.DAITM39"
  Name="DAITM39"
  DataType="integer"
  Length="8"
  Origin="CRF Pages 29, 63, 78, 95, 113, 134, 157"
  Comment=" "
  def:Label="COMPLETE HOUSEHOLD CHORES"
  >
  <CodeListRef CodeListOID="NYNAN"/>
</ItemDef>
<ItemDef OID="QS.QSTESTCD.DAITM40"
  Name="DAITM40"
  DataType="integer"
  Length="8"
  Origin="CRF Pages 29, 63, 78, 95, 113, 134, 157"
  Comment=" "
  def:Label="STAY SAFELY AT HOME BY HIMSELF/HERSELF"
  >
  <CodeListRef CodeListOID="NYNAN"/>
</ItemDef>
<ItemDef OID="QS.QSTESTCD.MHITM01"
  Name="MHITM01"
  DataType="integer"
  Length="8"
  Origin="CRF Page 11"
  Comment=" "
  def:Label="ABRUPT ONSET"
  >
  <CodeListRef CodeListOID="PRESABSB"/>
</ItemDef>
<ItemDef OID="QS.QSTESTCD.MHITM02"
  Name="MHITM02"
  DataType="integer"
  Length="8"
  Origin="CRF Page 11"
  Comment=" "
  def:Label="STEPWISE DETERIORATION"
  >
  <CodeListRef CodeListOID="PRESABSA"/>
</ItemDef>
<ItemDef OID="QS.QSTESTCD.MHITM03"
  Name="MHITM03"
  DataType="integer"
  Length="8"
  Origin="CRF Page 11"
  Comment=" "
  def:Label="FLUCTUATING COURSE"
  >
  <CodeListRef CodeListOID="PRESABSB"/>
</ItemDef>
<ItemDef OID="QS.QSTESTCD.MHITM04"
  Name="MHITM04"
  DataType="integer"
  Length="8"
  Origin="CRF Page 11"
  Comment=" "
  def:Label="NOCTURNAL CONFUSION"
  >
  <CodeListRef CodeListOID="PRESABSA"/>
</ItemDef>
<ItemDef OID="QS.QSTESTCD.MHITM05"
  Name="MHITM05"
  DataType="integer"
  Length="8"
  Origin="CRF Page 11"
  Comment=" "
  def:Label="RELATIVE PRESERVATION OF PERSONALITY"
  >
  <CodeListRef CodeListOID="PRESABSA"/>
</ItemDef>
<ItemDef OID="QS.QSTESTCD.MHITM06"
  Name="MHITM06"
  DataType="integer"
  Length="8"
  Origin="CRF Page 11"
  Comment=" "
  def:Label="DEPRESSION"
  >
  <CodeListRef CodeListOID="PRESABSA"/>
</ItemDef>
<ItemDef OID="QS.QSTESTCD.MHITM07"
  Name="MHITM07"
  DataType="integer"
  Length="8"
  Origin="CRF Page 11"
  Comment=" "
  def:Label="SOMATIC COMPLAINTS"
  >
  <CodeListRef CodeListOID="PRESABSA"/>
</ItemDef>
<ItemDef OID="QS.QSTESTCD.MHITM08"
  Name="MHITM08"
  DataType="integer"
  Length="8"
  Origin="CRF Page 11"
  Comment=" "
  def:Label="EMOTIONAL INCONTINENCE"
  >
  <CodeListRef CodeListOID="PRESABSA"/>
</ItemDef>
<ItemDef OID="QS.QSTESTCD.MHITM09"
  Name="MHITM09"
  DataType="integer"
  Length="8"
  Origin="CRF Page 11"
  Comment=" "
  def:Label="HISTORY OF HYPERTENSION"
  >
  <CodeListRef CodeListOID="PRESABSA"/>
</ItemDef>
<ItemDef OID="QS.QSTESTCD.MHITM10"
  Name="MHITM10"
  DataType="integer"
  Length="8"
  Origin="CRF Page 11"
  Comment=" "
  def:Label="HISTORY OF STROKES"
  >
  <CodeListRef CodeListOID="PRESABSB"/>
</ItemDef>
<ItemDef OID="QS.QSTESTCD.MHITM11"
  Name="MHITM11"
  DataType="integer"
  Length="8"
  Origin="CRF Page 11"
  Comment=" "
  def:Label="EVIDENCE OF ASSOCIATED ATHEROSCLEROSIS"
  >
  <CodeListRef CodeListOID="PRESABSA"/>
</ItemDef>
<ItemDef OID="QS.QSTESTCD.MHITM12"
  Name="MHITM12"
  DataType="integer"
  Length="8"
  Origin="CRF Page 11"
  Comment=" "
  def:Label="FOCAL NEUROLOGICAL SYMPTOMS"
  >
  <CodeListRef CodeListOID="PRESABSB"/>
</ItemDef>
<ItemDef OID="QS.QSTESTCD.MHITM13"
  Name="MHITM13"
  DataType="integer"
  Length="8"
  Origin="CRF Page 11"
  Comment=" "
  def:Label="FOCAL NEUROLOGICAL SIGNS"
  >
  <CodeListRef CodeListOID="PRESABSB"/>
</ItemDef>
<ItemDef OID="QS.QSTESTCD.MMITM01"
  Name="MMITM01"
  DataType="integer"
  Length="8"
  Origin="CRF Page 10"
  Comment=" "
  def:Label="WHAT IS THE (YEAR) (SEASON) (DATE) ?"
  >
  <CodeListRef CodeListOID="SCORE5V"/>
</ItemDef>
<ItemDef OID="QS.QSTESTCD.MMITM02"
  Name="MMITM02"
  DataType="integer"
  Length="8"
  Origin="CRF Page 10"
  Comment=" "
  def:Label="WHERE ARE WE: (STATE) (COUNTRY) (TOWN) ?"
  >
  <CodeListRef CodeListOID="SCORE5V"/>
</ItemDef>
<ItemDef OID="QS.QSTESTCD.MMITM03"
  Name="MMITM03"
  DataType="integer"
  Length="8"
  Origin="CRF Page 10"
  Comment=" "
  def:Label="NAME 3 OBJECTS: 1 SECOND TO SAY EACH."
  >
  <CodeListRef CodeListOID="SCORE3V"/>
</ItemDef>
<ItemDef OID="QS.QSTESTCD.MMITM04"
  Name="MMITM04"
  DataType="integer"
  Length="8"
  Origin="CRF Page 10"
  Comment=" "
  def:Label="SERIAL 7&apos;S. 1 POINT FOR EACH CORRECT."
  >
  <CodeListRef CodeListOID="SCORE5V"/>
</ItemDef>
<ItemDef OID="QS.QSTESTCD.MMITM05"
  Name="MMITM05"
  DataType="integer"
  Length="8"
  Origin="CRF Page 10"
  Comment=" "
  def:Label="ASK FOR THE 3 OBJECTS REPEATED ABOVE."
  >
  <CodeListRef CodeListOID="SCORE3V"/>
</ItemDef>
<ItemDef OID="QS.QSTESTCD.MMITM06"
  Name="MMITM06"
  DataType="integer"
  Length="8"
  Origin="CRF Page 10"
  Comment=" "
  def:Label="NAME A PENCIL, AND WATCH (2 POINTS)"
  >
  <CodeListRef CodeListOID="SCORE9V"/>
</ItemDef>
<ItemDef OID="QS.QSTESTCD.NPITM01"
  Name="NPITM01"
  DataType="integer"
  Length="8"
  Origin="CRF Pages 27, 38, 44, 54, 61, 69, 76, 84, 89, 93, 101, 111, 132"
  Comment=" "
  def:Label="DELUSIONS PRESENT"
  >
  <CodeListRef CodeListOID="PRESSC"/>
</ItemDef>
<ItemDef OID="QS.QSTESTCD.NPITM01D"
  Name="NPITM01D"
  DataType="integer"
  Length="8"
  Origin="CRF Pages 27, 38, 44, 54, 61, 69, 76, 84, 89, 93, 101, 111, 132"
  Comment=" "
  def:Label="DELUSIONS DISTRESS"
  >
  <CodeListRef CodeListOID="DISTSC"/>
</ItemDef>
<ItemDef OID="QS.QSTESTCD.NPITM01F"
  Name="NPITM01F"
  DataType="integer"
  Length="8"
  Origin="CRF Pages 27, 38, 44, 54, 61, 69, 76, 84, 89, 93, 101, 111, 132"
  Comment=" "
  def:Label="DELUSIONS FREQUENCY"
  >
  <CodeListRef CodeListOID="FREQSC"/>
</ItemDef>
<ItemDef OID="QS.QSTESTCD.NPITM01S"
  Name="NPITM01S"
  DataType="integer"
  Length="8"
  Origin="CRF Pages 27, 38, 44, 54, 61, 69, 76, 84, 89, 93, 101, 111, 132"
  Comment=" "
  def:Label="DELUSIONS Score"
/>
<ItemDef OID="QS.QSTESTCD.NPITM01V"
  Name="NPITM01V"
  DataType="integer"
  Length="8"
  Origin="CRF Pages 27, 38, 44, 54, 61, 69, 76, 84, 89, 93, 101, 111, 132"
  Comment=" "
  def:Label="DELUSIONS SEVERITY"
  >
  <CodeListRef CodeListOID="SEVSC"/>
</ItemDef>
<ItemDef OID="QS.QSTESTCD.NPITM02"
  Name="NPITM02"
  DataType="integer"
  Length="8"
  Origin="CRF Pages 27, 38, 44, 54, 61, 69, 76, 84, 89, 93, 101, 111, 132"
  Comment=" "
  def:Label="HALLUCINATIONS PRESENT"
  >
  <CodeListRef CodeListOID="PRESSC"/>
</ItemDef>
<ItemDef OID="QS.QSTESTCD.NPITM02D"
  Name="NPITM02D"
  DataType="integer"
  Length="8"
  Origin="CRF Pages 27, 38, 44, 54, 61, 69, 76, 84, 89, 93, 101, 111, 132"
  Comment=" "
  def:Label="HALLUCINATIONS DISTRESS"
  >
  <CodeListRef CodeListOID="DISTSC"/>
</ItemDef>
<ItemDef OID="QS.QSTESTCD.NPITM02F"
  Name="NPITM02F"
  DataType="integer"
  Length="8"
  Origin="CRF Pages 27, 38, 44, 54, 61, 69, 76, 84, 89, 93, 101, 111, 132"
  Comment=" "
  def:Label="HALLUCINATIONS FREQUENCY"
  >
  <CodeListRef CodeListOID="FREQSC"/>
</ItemDef>
<ItemDef OID="QS.QSTESTCD.NPITM02S"
  Name="NPITM02S"
  DataType="integer"
  Length="8"
  Origin="CRF Pages 27, 38, 44, 54, 61, 69, 76, 84, 89, 93, 101, 111, 132"
  Comment=" "
  def:Label="HALLUCINATIONS Score"
/>
<ItemDef OID="QS.QSTESTCD.NPITM02V"
  Name="NPITM02V"
  DataType="integer"
  Length="8"
  Origin="CRF Pages 27, 38, 44, 54, 61, 69, 76, 84, 89, 93, 101, 111, 132"
  Comment=" "
  def:Label="HALLUCINATIONS SEVERITY"
  >
  <CodeListRef CodeListOID="SEVSC"/>
</ItemDef>
<ItemDef OID="QS.QSTESTCD.NPITM03"
  Name="NPITM03"
  DataType="integer"
  Length="8"
  Origin="CRF Pages 27, 38, 44, 54, 61, 69, 76, 84, 89, 93, 101, 111, 132"
  Comment=" "
  def:Label="AGITATION/AGRESSION PRESENT"
  >
  <CodeListRef CodeListOID="PRESSC"/>
</ItemDef>
<ItemDef OID="QS.QSTESTCD.NPITM03D"
  Name="NPITM03D"
  DataType="integer"
  Length="8"
  Origin="CRF Pages 27, 38, 44, 54, 61, 69, 76, 84, 89, 93, 101, 111, 132"
  Comment=" "
  def:Label="AGITATION/AGRESSION DISTRESS"
  >
  <CodeListRef CodeListOID="DISTSC"/>
</ItemDef>
<ItemDef OID="QS.QSTESTCD.NPITM03F"
  Name="NPITM03F"
  DataType="integer"
  Length="8"
  Origin="CRF Pages 27, 38, 44, 54, 61, 69, 76, 84, 89, 93, 101, 111, 132"
  Comment=" "
  def:Label="AGITATION/AGRESSION FREQUENCY"
  >
  <CodeListRef CodeListOID="FREQSC"/>
</ItemDef>
<ItemDef OID="QS.QSTESTCD.NPITM03S"
  Name="NPITM03S"
  DataType="integer"
  Length="8"
  Origin="CRF Pages 27, 38, 44, 54, 61, 69, 76, 84, 89, 93, 101, 111, 132"
  Comment=" "
  def:Label="AGITATION/AGRESSION Score"
/>
<ItemDef OID="QS.QSTESTCD.NPITM03V"
  Name="NPITM03V"
  DataType="integer"
  Length="8"
  Origin="CRF Pages 27, 38, 44, 54, 61, 69, 76, 84, 89, 93, 101, 111, 132"
  Comment=" "
  def:Label="AGITATION/AGRESSION SEVERITY"
  >
  <CodeListRef CodeListOID="SEVSC"/>
</ItemDef>
<ItemDef OID="QS.QSTESTCD.NPITM04"
  Name="NPITM04"
  DataType="integer"
  Length="8"
  Origin="CRF Pages 27, 38, 44, 54, 61, 69, 76, 84, 89, 93, 101, 111, 132"
  Comment=" "
  def:Label="DEPRESSION/DYSPHORIA PRESENT"
  >
  <CodeListRef CodeListOID="PRESSC"/>
</ItemDef>
<ItemDef OID="QS.QSTESTCD.NPITM04D"
  Name="NPITM04D"
  DataType="integer"
  Length="8"
  Origin="CRF Pages 27, 38, 44, 54, 61, 69, 76, 84, 89, 93, 101, 111, 132"
  Comment=" "
  def:Label="DEPRESSION/DYSPHORIA DISTRESS"
  >
  <CodeListRef CodeListOID="DISTSC"/>
</ItemDef>
<ItemDef OID="QS.QSTESTCD.NPITM04F"
  Name="NPITM04F"
  DataType="integer"
  Length="8"
  Origin="CRF Pages 27, 38, 44, 54, 61, 69, 76, 84, 89, 93, 101, 111, 132"
  Comment=" "
  def:Label="DEPRESSION/DYSPHORIA FREQUENCY"
  >
  <CodeListRef CodeListOID="FREQSC"/>
</ItemDef>
<ItemDef OID="QS.QSTESTCD.NPITM04S"
  Name="NPITM04S"
  DataType="integer"
  Length="8"
  Origin="CRF Pages 27, 38, 44, 54, 61, 69, 76, 84, 89, 93, 101, 111, 132"
  Comment=" "
  def:Label="DEPRESSION/DYSPHORIA Score"
/>
<ItemDef OID="QS.QSTESTCD.NPITM04V"
  Name="NPITM04V"
  DataType="integer"
  Length="8"
  Origin="CRF Pages 27, 38, 44, 54, 61, 69, 76, 84, 89, 93, 101, 111, 132"
  Comment=" "
  def:Label="DEPRESSION/DYSPHORIA SEVERITY"
  >
  <CodeListRef CodeListOID="SEVSC"/>
</ItemDef>
<ItemDef OID="QS.QSTESTCD.NPITM05"
  Name="NPITM05"
  DataType="integer"
  Length="8"
  Origin="CRF Pages 27, 38, 44, 54, 61, 69, 76, 84, 89, 93, 101, 111, 132"
  Comment=" "
  def:Label="ANXIETY PRESENT"
  >
  <CodeListRef CodeListOID="PRESSC"/>
</ItemDef>
<ItemDef OID="QS.QSTESTCD.NPITM05D"
  Name="NPITM05D"
  DataType="integer"
  Length="8"
  Origin="CRF Pages 27, 38, 44, 54, 61, 69, 76, 84, 89, 93, 101, 111, 132"
  Comment=" "
  def:Label="ANXIETY DISTRESS"
  >
  <CodeListRef CodeListOID="DISTSC"/>
</ItemDef>
<ItemDef OID="QS.QSTESTCD.NPITM05F"
  Name="NPITM05F"
  DataType="integer"
  Length="8"
  Origin="CRF Pages 27, 38, 44, 54, 61, 69, 76, 84, 89, 93, 101, 111, 132"
  Comment=" "
  def:Label="ANXIETY FREQUENCY"
  >
  <CodeListRef CodeListOID="FREQSC"/>
</ItemDef>
<ItemDef OID="QS.QSTESTCD.NPITM05S"
  Name="NPITM05S"
  DataType="integer"
  Length="8"
  Origin="CRF Pages 27, 38, 44, 54, 61, 69, 76, 84, 89, 93, 101, 111, 132"
  Comment=" "
  def:Label="ANXIETY Score"
/>
<ItemDef OID="QS.QSTESTCD.NPITM05V"
  Name="NPITM05V"
  DataType="integer"
  Length="8"
  Origin="CRF Pages 27, 38, 44, 54, 61, 69, 76, 84, 89, 93, 101, 111, 132"
  Comment=" "
  def:Label="ANXIETY SEVERITY"
  >
  <CodeListRef CodeListOID="SEVSC"/>
</ItemDef>
<ItemDef OID="QS.QSTESTCD.NPITM06"
  Name="NPITM06"
  DataType="integer"
  Length="8"
  Origin="CRF Pages 27, 38, 44, 54, 61, 69, 76, 84, 89, 93, 101, 111, 132"
  Comment=" "
  def:Label="EUPHORIA/ELATION PRESENT"
  >
  <CodeListRef CodeListOID="PRESSC"/>
</ItemDef>
<ItemDef OID="QS.QSTESTCD.NPITM06D"
  Name="NPITM06D"
  DataType="integer"
  Length="8"
  Origin="CRF Pages 27, 38, 44, 54, 61, 69, 76, 84, 89, 93, 101, 111, 132"
  Comment=" "
  def:Label="EUPHORIA/ELATION DISTRESS"
  >
  <CodeListRef CodeListOID="DISTSC"/>
</ItemDef>
<ItemDef OID="QS.QSTESTCD.NPITM06F"
  Name="NPITM06F"
  DataType="integer"
  Length="8"
  Origin="CRF Pages 27, 38, 44, 54, 61, 69, 76, 84, 89, 93, 101, 111, 132"
  Comment=" "
  def:Label="EUPHORIA/ELATION FREQUENCY"
  >
  <CodeListRef CodeListOID="FREQSC"/>
</ItemDef>
<ItemDef OID="QS.QSTESTCD.NPITM06S"
  Name="NPITM06S"
  DataType="integer"
  Length="8"
  Origin="CRF Pages 27, 38, 44, 54, 61, 69, 76, 84, 89, 93, 101, 111, 132"
  Comment=" "
  def:Label="EUPHORIA/ELATION Score"
/>
<ItemDef OID="QS.QSTESTCD.NPITM06V"
  Name="NPITM06V"
  DataType="integer"
  Length="8"
  Origin="CRF Pages 27, 38, 44, 54, 61, 69, 76, 84, 89, 93, 101, 111, 132"
  Comment=" "
  def:Label="EUPHORIA/ELATION SEVERITY"
  >
  <CodeListRef CodeListOID="SEVSC"/>
</ItemDef>
<ItemDef OID="QS.QSTESTCD.NPITM07"
  Name="NPITM07"
  DataType="integer"
  Length="8"
  Origin="CRF Pages 27, 38, 44, 54, 61, 69, 76, 84, 89, 93, 101, 111, 132"
  Comment=" "
  def:Label="APATHY/INDIFFERENCE PRESENT"
  >
  <CodeListRef CodeListOID="PRESSC"/>
</ItemDef>
<ItemDef OID="QS.QSTESTCD.NPITM07D"
  Name="NPITM07D"
  DataType="integer"
  Length="8"
  Origin="CRF Pages 27, 38, 44, 54, 61, 69, 76, 84, 89, 93, 101, 111, 132"
  Comment=" "
  def:Label="APATHY/INDIFFERENCE DISTRESS"
  >
  <CodeListRef CodeListOID="DISTSC"/>
</ItemDef>
<ItemDef OID="QS.QSTESTCD.NPITM07F"
  Name="NPITM07F"
  DataType="integer"
  Length="8"
  Origin="CRF Pages 27, 38, 44, 54, 61, 69, 76, 84, 89, 93, 101, 111, 132"
  Comment=" "
  def:Label="APATHY/INDIFFERENCE FREQUENCY"
  >
  <CodeListRef CodeListOID="FREQSC"/>
</ItemDef>
<ItemDef OID="QS.QSTESTCD.NPITM07S"
  Name="NPITM07S"
  DataType="integer"
  Length="8"
  Origin="CRF Pages 27, 38, 44, 54, 61, 69, 76, 84, 89, 93, 101, 111, 132"
  Comment=" "
  def:Label="APATHY/INDIFFERENCE Score"
/>
<ItemDef OID="QS.QSTESTCD.NPITM07V"
  Name="NPITM07V"
  DataType="integer"
  Length="8"
  Origin="CRF Pages 27, 38, 44, 54, 61, 69, 76, 84, 89, 93, 101, 111, 132"
  Comment=" "
  def:Label="APATHY/INDIFFERENCE SEVERITY"
  >
  <CodeListRef CodeListOID="SEVSC"/>
</ItemDef>
<ItemDef OID="QS.QSTESTCD.NPITM08"
  Name="NPITM08"
  DataType="integer"
  Length="8"
  Origin="CRF Pages 27, 38, 44, 54, 61, 69, 76, 84, 89, 93, 101, 111, 132"
  Comment=" "
  def:Label="DISINHIBITION PRESENT"
  >
  <CodeListRef CodeListOID="PRESSC"/>
</ItemDef>
<ItemDef OID="QS.QSTESTCD.NPITM08D"
  Name="NPITM08D"
  DataType="integer"
  Length="8"
  Origin="CRF Pages 27, 38, 44, 54, 61, 69, 76, 84, 89, 93, 101, 111, 132"
  Comment=" "
  def:Label="DISINHIBITION DISTRESS"
  >
  <CodeListRef CodeListOID="DISTSC"/>
</ItemDef>
<ItemDef OID="QS.QSTESTCD.NPITM08F"
  Name="NPITM08F"
  DataType="integer"
  Length="8"
  Origin="CRF Pages 27, 38, 44, 54, 61, 69, 76, 84, 89, 93, 101, 111, 132"
  Comment=" "
  def:Label="DISINHIBITION FREQUENCY"
  >
  <CodeListRef CodeListOID="FREQSC"/>
</ItemDef>
<ItemDef OID="QS.QSTESTCD.NPITM08S"
  Name="NPITM08S"
  DataType="integer"
  Length="8"
  Origin="CRF Pages 27, 38, 44, 54, 61, 69, 76, 84, 89, 93, 101, 111, 132"
  Comment=" "
  def:Label="DISINHIBITION Score"
/>
<ItemDef OID="QS.QSTESTCD.NPITM08V"
  Name="NPITM08V"
  DataType="integer"
  Length="8"
  Origin="CRF Pages 27, 38, 44, 54, 61, 69, 76, 84, 89, 93, 101, 111, 132"
  Comment=" "
  def:Label="DISINHIBITION SEVERITY"
  >
  <CodeListRef CodeListOID="SEVSC"/>
</ItemDef>
<ItemDef OID="QS.QSTESTCD.NPITM09"
  Name="NPITM09"
  DataType="integer"
  Length="8"
  Origin="CRF Pages 27, 38, 44, 54, 61, 69, 76, 84, 89, 93, 101, 111, 132"
  Comment=" "
  def:Label="IRRITABILITY/LABILITY PRESENT"
  >
  <CodeListRef CodeListOID="PRESSC"/>
</ItemDef>
<ItemDef OID="QS.QSTESTCD.NPITM09D"
  Name="NPITM09D"
  DataType="integer"
  Length="8"
  Origin="CRF Pages 27, 38, 44, 54, 61, 69, 76, 84, 89, 93, 101, 111, 132"
  Comment=" "
  def:Label="IRRITABILITY/LABILITY DISTRESS"
  >
  <CodeListRef CodeListOID="DISTSC"/>
</ItemDef>
<ItemDef OID="QS.QSTESTCD.NPITM09F"
  Name="NPITM09F"
  DataType="integer"
  Length="8"
  Origin="CRF Pages 27, 38, 44, 54, 61, 69, 76, 84, 89, 93, 101, 111, 132"
  Comment=" "
  def:Label="IRRITABILITY/LABILITY FREQUENCY"
  >
  <CodeListRef CodeListOID="FREQSC"/>
</ItemDef>
<ItemDef OID="QS.QSTESTCD.NPITM09S"
  Name="NPITM09S"
  DataType="integer"
  Length="8"
  Origin="CRF Pages 27, 38, 44, 54, 61, 69, 76, 84, 89, 93, 101, 111, 132"
  Comment=" "
  def:Label="IRRITABILITY/LABILITY Score"
/>
<ItemDef OID="QS.QSTESTCD.NPITM09V"
  Name="NPITM09V"
  DataType="integer"
  Length="8"
  Origin="CRF Pages 27, 38, 44, 54, 61, 69, 76, 84, 89, 93, 101, 111, 132"
  Comment=" "
  def:Label="IRRITABILITY/LABILITY SEVERITY"
  >
  <CodeListRef CodeListOID="SEVSC"/>
</ItemDef>
<ItemDef OID="QS.QSTESTCD.NPITM10"
  Name="NPITM10"
  DataType="integer"
  Length="8"
  Origin="CRF Pages 27, 38, 44, 54, 61, 69, 76, 84, 89, 93, 101, 111, 132"
  Comment=" "
  def:Label="ABERRANT MOTOR BEHAVIOR PRESENT"
  >
  <CodeListRef CodeListOID="PRESSC"/>
</ItemDef>
<ItemDef OID="QS.QSTESTCD.NPITM10D"
  Name="NPITM10D"
  DataType="integer"
  Length="8"
  Origin="CRF Pages 27, 38, 44, 54, 61, 69, 76, 84, 89, 93, 101, 111, 132"
  Comment=" "
  def:Label="ABERRANT MOTOR BEHAVIOR DISTRESS"
  >
  <CodeListRef CodeListOID="DISTSC"/>
</ItemDef>
<ItemDef OID="QS.QSTESTCD.NPITM10F"
  Name="NPITM10F"
  DataType="integer"
  Length="8"
  Origin="CRF Pages 27, 38, 44, 54, 61, 69, 76, 84, 89, 93, 101, 111, 132"
  Comment=" "
  def:Label="ABERRANT MOTOR BEHAVIOR FREQUENCY"
  >
  <CodeListRef CodeListOID="FREQSC"/>
</ItemDef>
<ItemDef OID="QS.QSTESTCD.NPITM10S"
  Name="NPITM10S"
  DataType="integer"
  Length="8"
  Origin="CRF Pages 27, 38, 44, 54, 61, 69, 76, 84, 89, 93, 101, 111, 132"
  Comment=" "
  def:Label="ABERRANT MOTOR BEHAVIOR Score"
/>
<ItemDef OID="QS.QSTESTCD.NPITM10V"
  Name="NPITM10V"
  DataType="integer"
  Length="8"
  Origin="CRF Pages 27, 38, 44, 54, 61, 69, 76, 84, 89, 93, 101, 111, 132"
  Comment=" "
  def:Label="ABERRANT MOTOR BEHAVIOR SEVERITY"
  >
  <CodeListRef CodeListOID="SEVSC"/>
</ItemDef>
<ItemDef OID="QS.QSTESTCD.NPITM11"
  Name="NPITM11"
  DataType="integer"
  Length="8"
  Origin="CRF Pages 27, 38, 44, 54, 61, 69, 76, 84, 89, 93, 101, 111, 132"
  Comment=" "
  def:Label="NIGHT-TIME BEHAVIOR PRESENT"
  >
  <CodeListRef CodeListOID="PRESSC"/>
</ItemDef>
<ItemDef OID="QS.QSTESTCD.NPITM11D"
  Name="NPITM11D"
  DataType="integer"
  Length="8"
  Origin="CRF Pages 27, 38, 44, 54, 61, 69, 76, 84, 89, 93, 101, 111, 132"
  Comment=" "
  def:Label="NIGHT-TIME BEHAVIOR DISTRESS"
  >
  <CodeListRef CodeListOID="DISTSC"/>
</ItemDef>
<ItemDef OID="QS.QSTESTCD.NPITM11F"
  Name="NPITM11F"
  DataType="integer"
  Length="8"
  Origin="CRF Pages 27, 38, 44, 54, 61, 69, 76, 84, 89, 93, 101, 111, 132"
  Comment=" "
  def:Label="NIGHT-TIME BEHAVIOR FREQUENCY"
  >
  <CodeListRef CodeListOID="FREQSC"/>
</ItemDef>
<ItemDef OID="QS.QSTESTCD.NPITM11S"
  Name="NPITM11S"
  DataType="integer"
  Length="8"
  Origin="CRF Pages 27, 38, 44, 54, 61, 69, 76, 84, 89, 93, 101, 111, 132"
  Comment=" "
  def:Label="NIGHT-TIME BEHAVIOR Score"
/>
<ItemDef OID="QS.QSTESTCD.NPITM11V"
  Name="NPITM11V"
  DataType="integer"
  Length="8"
  Origin="CRF Pages 27, 38, 44, 54, 61, 69, 76, 84, 89, 93, 101, 111, 132"
  Comment=" "
  def:Label="NIGHT-TIME BEHAVIOR SEVERITY"
  >
  <CodeListRef CodeListOID="SEVSC"/>
</ItemDef>
<ItemDef OID="QS.QSTESTCD.NPITM12"
  Name="NPITM12"
  DataType="integer"
  Length="8"
  Origin="CRF Pages 27, 38, 44, 54, 61, 69, 76, 84, 89, 93, 101, 111, 132"
  Comment=" "
  def:Label="APPETITE/EATING CHANGE PRESENT"
  >
  <CodeListRef CodeListOID="PRESSC"/>
</ItemDef>
<ItemDef OID="QS.QSTESTCD.NPITM12D"
  Name="NPITM12D"
  DataType="integer"
  Length="8"
  Origin="CRF Pages 27, 38, 44, 54, 61, 69, 76, 84, 89, 93, 101, 111, 132"
  Comment=" "
  def:Label="APPETITE/EATING CHANGE DISTRESS"
  >
  <CodeListRef CodeListOID="DISTSC"/>
</ItemDef>
<ItemDef OID="QS.QSTESTCD.NPITM12F"
  Name="NPITM12F"
  DataType="integer"
  Length="8"
  Origin="CRF Pages 27, 38, 44, 54, 61, 69, 76, 84, 89, 93, 101, 111, 132"
  Comment=" "
  def:Label="APPETITE/EATING CHANGE FREQUENCY"
  >
  <CodeListRef CodeListOID="FREQSC"/>
</ItemDef>
<ItemDef OID="QS.QSTESTCD.NPITM12S"
  Name="NPITM12S"
  DataType="integer"
  Length="8"
  Origin="CRF Pages 27, 38, 44, 54, 61, 69, 76, 84, 89, 93, 101, 111, 132"
  Comment=" "
  def:Label="APPETITE/EATING CHANGE Score"
/>
<ItemDef OID="QS.QSTESTCD.NPITM12V"
  Name="NPITM12V"
  DataType="integer"
  Length="8"
  Origin="CRF Pages 27, 38, 44, 54, 61, 69, 76, 84, 89, 93, 101, 111, 132"
  Comment=" "
  def:Label="APPETITE/EATING CHANGE SEVERITY"
  >
  <CodeListRef CodeListOID="SEVSC"/>
</ItemDef>
<ItemDef OID="QS.QSTESTCD.NPTOT"
  Name="NPTOT"
  DataType="integer"
  Length="8"
  Origin="Derived"
  Comment="see SAP"
  def:Label="NPI-X (9) Total Score"
/>
<ItemDef OID="SC.SCTESTCD.EDLEVEL"
  Name="EDLEVEL"
  DataType="integer"
  Length="8"
  Origin="CRF Page 8"
  Comment=" "
  def:Label="EDUCATION LEVEL"
/>
<ItemDef OID="SUPPAE.QNAM.TRTEMFL"
  Name="TRTEMFL"
  DataType="text"
  Length="1"
  Origin="Derived"
  Comment="see SAP"
  def:Label="TREAMENT EMERGENT FLAG"
  >
  <CodeListRef CodeListOID="YN"/>
</ItemDef>
<ItemDef OID="SUPPDM.QNAM.COMPLT16"
  Name="COMPLT16"
  DataType="text"
  Length="1"
  Origin="Derived"
  Comment="see SAP"
  def:Label="Completers of Week 16 Population Flag"
  >
  <CodeListRef CodeListOID="Y_BLANK"/>
</ItemDef>
<ItemDef OID="SUPPDM.QNAM.COMPLT24"
  Name="COMPLT24"
  DataType="text"
  Length="1"
  Origin="Derived"
  Comment="see SAP"
  def:Label="Completers of Week 24 Population Flag"
  >
  <CodeListRef CodeListOID="Y_BLANK"/>
</ItemDef>
<ItemDef OID="SUPPDM.QNAM.COMPLT8"
  Name="COMPLT8"
  DataType="text"
  Length="1"
  Origin="Derived"
  Comment="see SAP"
  def:Label="Completers of Week 8 Population Flag"
  >
  <CodeListRef CodeListOID="Y_BLANK"/>
</ItemDef>
<ItemDef OID="SUPPDM.QNAM.EFFICACY"
  Name="EFFICACY"
  DataType="text"
  Length="1"
  Origin="Derived"
  Comment="see SAP"
  def:Label="Efficacy Population Flag"
  >
  <CodeListRef CodeListOID="Y_BLANK"/>
</ItemDef>
<ItemDef OID="SUPPDM.QNAM.SAFETY"
  Name="SAFETY"
  DataType="text"
  Length="1"
  Origin="Derived"
  Comment="see SAP"
  def:Label="Safety Population Flag"
  >
  <CodeListRef CodeListOID="Y_BLANK"/>
</ItemDef>
<ItemDef OID="SUPPDM.QNAM.ITT"
  Name="ITT"
  DataType="text"
  Length="1"
  Origin="Derived"
  Comment="see SAP"
  def:Label="Intent to Treat Population Flag"
  >
  <CodeListRef CodeListOID="Y_BLANK"/>
</ItemDef>
<ItemDef OID="SUPPDS.QNAM.ENTCRIT"
  Name="ENTCRIT"
  DataType="integer"
  Length="8"
  Origin="CRF Page 106"
  Comment=" "
  def:Label="PROTOCOL ENTRY CRITERIA NOT MET"
/>
<ItemDef OID="SUPPLB.QNAM.ENDPOINT"
  Name="ENDPOINT"
  DataType="text"
  Length="1"
  Origin="Derived"
  Comment="see SAP"
  def:Label="ENDPOINT VALUE FLAG"
  >
  <CodeListRef CodeListOID="Y_BLANK"/>
</ItemDef>
<ItemDef OID="SUPPLB.QNAM.LBTMSHI"
  Name="LBTMSHI"
  DataType="float"
  Length="8"
  SignificantDigits="1"
  Origin="Derived"
  Comment="LBSTRESN / LBSTNRHI"
  def:Label="LAB RESULT/UPPER LIMIT OF NORMAL"
  def:DisplayFormat="12.1"
/>
<ItemDef OID="TS.TSPARMCD.ADDON"
  Name="ADDON"
  DataType="text"
  Length="1"
  Origin="Protocol"
  Comment=" "
  def:Label="Added on to Existing Treatments"
  >
  <CodeListRef CodeListOID="YN"/>
</ItemDef>
<ItemDef OID="TS.TSPARMCD.AGEMAX"
  Name="AGEMAX"
  DataType="text"
  Length="10"
  Origin="Protocol"
  Comment=" "
  def:Label="Planned Maximum Age of Subjects"
/>
<ItemDef OID="TS.TSPARMCD.AGEMIN"
  Name="AGEMIN"
  DataType="text"
  Length="8"
  Origin="Protocol"
  Comment=" "
  def:Label="Planned Minimum Age of Subjects"
/>
<ItemDef OID="TS.TSPARMCD.AGESPAN"
  Name="AGESPAN"
  DataType="text"
  Length="14"
  Origin="Protocol"
  Comment=" "
  def:Label="Age Group"
  >
  <CodeListRef CodeListOID="AGESPAN"/>
</ItemDef>
<ItemDef OID="TS.TSPARMCD.COMPTRT"
  Name="COMPTRT"
  DataType="text"
  Length="7"
  Origin="Protocol"
  Comment=" "
  def:Label="Comparative Treatment Name"
/>
<ItemDef OID="TS.TSPARMCD.DOSE"
  Name="DOSE"
  DataType="integer"
  Length="8"
  Origin="Protocol"
  Comment=" "
  def:Label="Dose per Administration"
/>
<ItemDef OID="TS.TSPARMCD.DOSFRQ"
  Name="DOSFRQ"
  DataType="text"
  Length="42"
  Origin="Protocol"
  Comment=" "
  def:Label="Dosing Frequency"
/>
<ItemDef OID="TS.TSPARMCD.DOSU"
  Name="DOSU"
  DataType="text"
  Length="2"
  Origin="Protocol"
  Comment=" "
  def:Label="Dose Units"
/>
<ItemDef OID="TS.TSPARMCD.INDIC"
  Name="INDIC"
  DataType="text"
  Length="36"
  Origin="Protocol"
  Comment=" "
  def:Label="Trial Indication"
/>
<ItemDef OID="TS.TSPARMCD.LENGTH"
  Name="LENGTH"
  DataType="text"
  Length="8"
  Origin="Protocol"
  Comment=" "
  def:Label="Trial Length"
/>
<ItemDef OID="TS.TSPARMCD.OBJPRIM"
  Name="OBJPRIM"
  DataType="text"
  Length="174"
  Origin="Protocol"
  Comment=" "
  def:Label="Trial Primary Objective"
/>
<ItemDef OID="TS.TSPARMCD.OBJSEC"
  Name="OBJSEC"
  DataType="text"
  Length="179"
  Origin="Protocol"
  Comment=" "
  def:Label="Trial Secondary Objective"
/>
<ItemDef OID="TS.TSPARMCD.PLANSUB"
  Name="PLANSUB"
  DataType="integer"
  Length="8"
  Origin="Protocol"
  Comment=" "
  def:Label="Planned Number of Subjects"
/>
<ItemDef OID="TS.TSPARMCD.RANDOM"
  Name="RANDOM"
  DataType="text"
  Length="1"
  Origin="Protocol"
  Comment=" "
  def:Label="Trial is Randomized"
  >
  <CodeListRef CodeListOID="YN"/>
</ItemDef>
<ItemDef OID="TS.TSPARMCD.ROUTE"
  Name="ROUTE"
  DataType="text"
  Length="11"
  Origin="Protocol"
  Comment=" "
  def:Label="Route of Administration"
/>
<ItemDef OID="TS.TSPARMCD.SEXPOP"
  Name="SEXPOP"
  DataType="text"
  Length="4"
  Origin="Protocol"
  Comment=" "
  def:Label="Sex of Participants"
  >
  <CodeListRef CodeListOID="SEXPOP"/>
</ItemDef>
<ItemDef OID="TS.TSPARMCD.SPONSOR"
  Name="SPONSOR"
  DataType="text"
  Length="12"
  Origin="Protocol"
  Comment=" "
  def:Label="Clinical Study Sponsor"
/>
<ItemDef OID="TS.TSPARMCD.TBLIND"
  Name="TBLIND"
  DataType="text"
  Length="12"
  Origin="Protocol"
  Comment=" "
  def:Label="Trial Blinding Schema"
  >
  <CodeListRef CodeListOID="TBLIND"/>
</ItemDef>
<ItemDef OID="TS.TSPARMCD.TCNTRL"
  Name="TCNTRL"
  DataType="text"
  Length="7"
  Origin="Protocol"
  Comment=" "
  def:Label="Control Type"
  >
  <CodeListRef CodeListOID="TCNTRL"/>
</ItemDef>
<ItemDef OID="TS.TSPARMCD.TDIGRP"
  Name="TDIGRP"
  DataType="text"
  Length="59"
  Origin="Protocol"
  Comment=" "
  def:Label="Diagnosis Group"
/>
<ItemDef OID="TS.TSPARMCD.TINDTP"
  Name="TINDTP"
  DataType="text"
  Length="9"
  Origin="Protocol"
  Comment=" "
  def:Label="Trial Indication Type"
  >
  <CodeListRef CodeListOID="TINDTP"/>
</ItemDef>
<ItemDef OID="TS.TSPARMCD.TITLE"
  Name="TITLE"
  DataType="text"
  Length="129"
  Origin="Protocol"
  Comment=" "
  def:Label="Trial Title"
/>
<ItemDef OID="TS.TSPARMCD.TPHASE"
  Name="TPHASE"
  DataType="text"
  Length="14"
  Origin="Protocol"
  Comment=" "
  def:Label="Trial Phase Classification"
  >
  <CodeListRef CodeListOID="TPHASE"/>
</ItemDef>
<ItemDef OID="TS.TSPARMCD.TRT"
  Name="TRT"
  DataType="text"
  Length="10"
  Origin="Protocol"
  Comment=" "
  def:Label="Investigational Therapy or Treatment"
/>
<ItemDef OID="TS.TSPARMCD.TTYPE"
  Name="TTYPE"
  DataType="text"
  Length="15"
  Origin="Protocol"
  Comment=" "
  def:Label="Trial Type"
  >
  <CodeListRef CodeListOID="TTYPE"/>
</ItemDef>
<ItemDef OID="VS.VSTESTCD.DIABP"
  Name="DIABP"
  DataType="float"
  Length="8"
  SignificantDigits="1"
  Origin="CRF Pages 10, 23, 30, 33, 39, 45, 50, 55, 64, 70, 79, 85, 96, 102, 114, 135"
  Comment=" "
  def:Label="Diastolic Blood Pressure"
  def:DisplayFormat="12.1"
/>
<ItemDef OID="VS.VSTESTCD.HEIGHT"
  Name="HEIGHT"
  DataType="float"
  Length="8"
  SignificantDigits="2"
  Origin="CRF Page 16"
  Comment=" "
  def:Label="Height"
  def:DisplayFormat="12.2"
/>
<ItemDef OID="VS.VSTESTCD.PULSE"
  Name="PULSE"
  DataType="float"
  Length="8"
  SignificantDigits="1"
  Origin="CRF Pages 10, 23, 30, 33, 39, 45, 50, 55, 64, 70, 79, 85, 96, 102, 114, 135"
  Comment=" "
  def:Label="Pulse Rate"
  def:DisplayFormat="12.1"
/>
<ItemDef OID="VS.VSTESTCD.SYSBP"
  Name="SYSBP"
  DataType="float"
  Length="8"
  SignificantDigits="1"
  Origin="CRF Pages 10, 23, 30, 33, 39, 45, 50, 55, 64, 70, 79, 85, 96, 102, 114, 135"
  Comment=" "
  def:Label="Systolic Blood Pressure"
  def:DisplayFormat="12.1"
/>
<ItemDef OID="VS.VSTESTCD.TEMP"
  Name="TEMP"
  DataType="float"
  Length="8"
  SignificantDigits="2"
  Origin="CRF Pages 10, 23, 30, 33, 39, 45, 50, 55, 64, 70, 79, 85, 96, 102, 114, 135"
  Comment=" "
  def:Label="Temperature"
  def:DisplayFormat="12.2"
/>
<ItemDef OID="VS.VSTESTCD.WEIGHT"
  Name="WEIGHT"
  DataType="float"
  Length="8"
  SignificantDigits="2"
  Origin="CRF Pages 16, 30, 39, 45, 55, 64, 70, 79, 85, 96, 102, 135"
  Comment=" "
  def:Label="Weight"
  def:DisplayFormat="12.2"
/>
<CodeList OID="AECAUS" Name="AECAUS" DataType="text">
  <CodeListItem CodedValue="NONE" def:Rank="1">
    <Decode>
      <TranslatedText xml:lang="en">NONE</TranslatedText>
    </Decode>
  </CodeListItem>
  <CodeListItem CodedValue="POSSIBLE" def:Rank="2">
    <Decode>
      <TranslatedText xml:lang="en">POSSIBLE</TranslatedText>
    </Decode>
  </CodeListItem>
  <CodeListItem CodedValue="PROBABLE" def:Rank="3">
    <Decode>
      <TranslatedText xml:lang="en">PROBABLE</TranslatedText>
    </Decode>
  </CodeListItem>
  <CodeListItem CodedValue="REMOTE" def:Rank="4">
    <Decode>
      <TranslatedText xml:lang="en">REMOTE</TranslatedText>
    </Decode>
  </CodeListItem>
</CodeList>
<CodeList OID="AGESPAN" Name="AGESPAN" DataType="text">
  <CodeListItem CodedValue="CHILDREN (2-11 YEARS)" def:Rank="1">
    <Decode>
      <TranslatedText xml:lang="en">CHILDREN (2-11 YEARS)</TranslatedText>
    </Decode>
  </CodeListItem>
  <CodeListItem CodedValue="ADOLESCENT (12-17 YEARS)" def:Rank="2">
    <Decode>
      <TranslatedText xml:lang="en">ADOLESCENT (12-17 YEARS)</TranslatedText>
    </Decode>
  </CodeListItem>
  <CodeListItem CodedValue="ADULT (18-65)" def:Rank="3">
    <Decode>
      <TranslatedText xml:lang="en">ADULT (18-65)</TranslatedText>
    </Decode>
  </CodeListItem>
  <CodeListItem CodedValue="ELDERLY (&gt; 65)" def:Rank="4">
    <Decode>
      <TranslatedText xml:lang="en">ELDERLY (&gt; 65)</TranslatedText>
    </Decode>
  </CodeListItem>
</CodeList>
<CodeList OID="AGEU" Name="AGEU" DataType="text">
  <CodeListItem CodedValue="YEARS" def:Rank="1">
    <Decode>
      <TranslatedText xml:lang="en">YEARS</TranslatedText>
    </Decode>
  </CodeListItem>
</CodeList>
<CodeList OID="ARM" Name="ARM" DataType="text">
  <CodeListItem CodedValue="Screen Failure" def:Rank="1">
    <Decode>
      <TranslatedText xml:lang="en">Screen Failure</TranslatedText>
    </Decode>
  </CodeListItem>
  <CodeListItem CodedValue="Placebo" def:Rank="2">
    <Decode>
      <TranslatedText xml:lang="en">Placebo</TranslatedText>
    </Decode>
  </CodeListItem>
  <CodeListItem CodedValue="Xanomeline Low Dose" def:Rank="3">
    <Decode>
      <TranslatedText xml:lang="en">Xanomeline Low Dose</TranslatedText>
    </Decode>
  </CodeListItem>
  <CodeListItem CodedValue="Xanomeline High Dose" def:Rank="4">
    <Decode>
      <TranslatedText xml:lang="en">Xanomeline High Dose</TranslatedText>
    </Decode>
  </CodeListItem>
</CodeList>
<CodeList OID="ARMCD" Name="ARMCD" DataType="text">
  <CodeListItem CodedValue="Scrnfail" def:Rank="1">
    <Decode>
      <TranslatedText xml:lang="en">Screen Failure</TranslatedText>
    </Decode>
  </CodeListItem>
  <CodeListItem CodedValue="Pbo" def:Rank="2">
    <Decode>
      <TranslatedText xml:lang="en">Placebo</TranslatedText>
    </Decode>
  </CodeListItem>
  <CodeListItem CodedValue="Xan_Lo" def:Rank="3">
    <Decode>
      <TranslatedText xml:lang="en">Xanomeline Low Dose</TranslatedText>
    </Decode>
  </CodeListItem>
  <CodeListItem CodedValue="Xan_Hi" def:Rank="4">
    <Decode>
      <TranslatedText xml:lang="en">Xanomeline High Dose</TranslatedText>
    </Decode>
  </CodeListItem>
</CodeList>
<CodeList OID="CIBIC" Name="CIBIC" DataType="integer">
  <CodeListItem CodedValue="1" def:Rank="1">
    <Decode>
      <TranslatedText xml:lang="en">Marked improvement</TranslatedText>
    </Decode>
  </CodeListItem>
  <CodeListItem CodedValue="2" def:Rank="2">
    <Decode>
      <TranslatedText xml:lang="en">Moderate improvement</TranslatedText>
    </Decode>
  </CodeListItem>
  <CodeListItem CodedValue="3" def:Rank="3">
    <Decode>
      <TranslatedText xml:lang="en">Minimal improvement</TranslatedText>
    </Decode>
  </CodeListItem>
  <CodeListItem CodedValue="4" def:Rank="4">
    <Decode>
      <TranslatedText xml:lang="en">No Change</TranslatedText>
    </Decode>
  </CodeListItem>
  <CodeListItem CodedValue="5" def:Rank="5">
    <Decode>
      <TranslatedText xml:lang="en">Minimal worsening</TranslatedText>
    </Decode>
  </CodeListItem>
  <CodeListItem CodedValue="6" def:Rank="6">
    <Decode>
      <TranslatedText xml:lang="en">Moderate worsening</TranslatedText>
    </Decode>
  </CodeListItem>
  <CodeListItem CodedValue="7" def:Rank="7">
    <Decode>
      <TranslatedText xml:lang="en">Marked worsening</TranslatedText>
    </Decode>
  </CodeListItem>
</CodeList>
<CodeList OID="CMFREQ" Name="CMFREQ" DataType="text">
  <CodeListItem CodedValue="BID" def:Rank="1">
    <Decode>
      <TranslatedText xml:lang="en">BID</TranslatedText>
    </Decode>
  </CodeListItem>
  <CodeListItem CodedValue="EVERY MORNING" def:Rank="2">
    <Decode>
      <TranslatedText xml:lang="en">EVERY MORNING</TranslatedText>
    </Decode>
  </CodeListItem>
  <CodeListItem CodedValue="EVERY NIGHT" def:Rank="3">
    <Decode>
      <TranslatedText xml:lang="en">EVERY NIGHT</TranslatedText>
    </Decode>
  </CodeListItem>
  <CodeListItem CodedValue="ONCE" def:Rank="4">
    <Decode>
      <TranslatedText xml:lang="en">ONCE</TranslatedText>
    </Decode>
  </CodeListItem>
  <CodeListItem CodedValue="OTHER" def:Rank="5">
    <Decode>
      <TranslatedText xml:lang="en">OTHER</TranslatedText>
    </Decode>
  </CodeListItem>
  <CodeListItem CodedValue="PRN" def:Rank="6">
    <Decode>
      <TranslatedText xml:lang="en">PRN</TranslatedText>
    </Decode>
  </CodeListItem>
  <CodeListItem CodedValue="Q3H" def:Rank="7">
    <Decode>
      <TranslatedText xml:lang="en">Q3H</TranslatedText>
    </Decode>
  </CodeListItem>
  <CodeListItem CodedValue="Q4H" def:Rank="8">
    <Decode>
      <TranslatedText xml:lang="en">Q4H</TranslatedText>
    </Decode>
  </CodeListItem>
  <CodeListItem CodedValue="Q6H" def:Rank="9">
    <Decode>
      <TranslatedText xml:lang="en">Q6H</TranslatedText>
    </Decode>
  </CodeListItem>
  <CodeListItem CodedValue="Q4S" def:Rank="10">
    <Decode>
      <TranslatedText xml:lang="en">Q4S</TranslatedText>
    </Decode>
  </CodeListItem>
  <CodeListItem CodedValue="QD" def:Rank="11">
    <Decode>
      <TranslatedText xml:lang="en">QD</TranslatedText>
    </Decode>
  </CodeListItem>
  <CodeListItem CodedValue="QID" def:Rank="12">
    <Decode>
      <TranslatedText xml:lang="en">QID</TranslatedText>
    </Decode>
  </CodeListItem>
  <CodeListItem CodedValue="QM" def:Rank="13">
    <Decode>
      <TranslatedText xml:lang="en">QM</TranslatedText>
    </Decode>
  </CodeListItem>
  <CodeListItem CodedValue="QOD" def:Rank="14">
    <Decode>
      <TranslatedText xml:lang="en">QOD</TranslatedText>
    </Decode>
  </CodeListItem>
  <CodeListItem CodedValue="QS" def:Rank="15">
    <Decode>
      <TranslatedText xml:lang="en">QS</TranslatedText>
    </Decode>
  </CodeListItem>
  <CodeListItem CodedValue="TID" def:Rank="16">
    <Decode>
      <TranslatedText xml:lang="en">TID</TranslatedText>
    </Decode>
  </CodeListItem>
  <CodeListItem CodedValue="TIS" def:Rank="17">
    <Decode>
      <TranslatedText xml:lang="en">TIS</TranslatedText>
    </Decode>
  </CodeListItem>
  <CodeListItem CodedValue="TWICE" def:Rank="18">
    <Decode>
      <TranslatedText xml:lang="en">TWICE</TranslatedText>
    </Decode>
  </CodeListItem>
</CodeList>
<CodeList OID="CMROUTE" Name="CMROUTE" DataType="text">
  <CodeListItem CodedValue="AURICULAR (OTIC)" def:Rank="1">
    <Decode>
      <TranslatedText xml:lang="en">AURICULAR (OTIC)</TranslatedText>
    </Decode>
  </CodeListItem>
  <CodeListItem CodedValue="INTRAMUSCULAR" def:Rank="2">
    <Decode>
      <TranslatedText xml:lang="en">INTRAMUSCULAR</TranslatedText>
    </Decode>
  </CodeListItem>
  <CodeListItem CodedValue="INTRAVENOUS" def:Rank="3">
    <Decode>
      <TranslatedText xml:lang="en">INTRAVENOUS</TranslatedText>
    </Decode>
  </CodeListItem>
  <CodeListItem CodedValue="NASAL" def:Rank="4">
    <Decode>
      <TranslatedText xml:lang="en">NASAL</TranslatedText>
    </Decode>
  </CodeListItem>
  <CodeListItem CodedValue="OPHTHALMIC" def:Rank="5">
    <Decode>
      <TranslatedText xml:lang="en">OPHTHALMIC</TranslatedText>
    </Decode>
  </CodeListItem>
  <CodeListItem CodedValue="ORAL" def:Rank="6">
    <Decode>
      <TranslatedText xml:lang="en">ORAL</TranslatedText>
    </Decode>
  </CodeListItem>
  <CodeListItem CodedValue="RESPIRATORY (INHALATION)" def:Rank="7">
    <Decode>
      <TranslatedText xml:lang="en">RESPIRATORY (INHALATION)</TranslatedText>
    </Decode>
  </CodeListItem>
  <CodeListItem CodedValue="RECTAL" def:Rank="8">
    <Decode>
      <TranslatedText xml:lang="en">RECTAL</TranslatedText>
    </Decode>
  </CodeListItem>
  <CodeListItem CodedValue="SUBCUTANEOUS" def:Rank="9">
    <Decode>
      <TranslatedText xml:lang="en">SUBCUTANEOUS</TranslatedText>
    </Decode>
  </CodeListItem>
  <CodeListItem CodedValue="SUBLINGUAL" def:Rank="10">
    <Decode>
      <TranslatedText xml:lang="en">SUBLINGUAL</TranslatedText>
    </Decode>
  </CodeListItem>
  <CodeListItem CodedValue="TOPICAL" def:Rank="11">
    <Decode>
      <TranslatedText xml:lang="en">TOPICAL</TranslatedText>
    </Decode>
  </CodeListItem>
  <CodeListItem CodedValue="TRANSDERMAL" def:Rank="12">
    <Decode>
      <TranslatedText xml:lang="en">TRANSDERMAL</TranslatedText>
    </Decode>
  </CodeListItem>
  <CodeListItem CodedValue="VAGINAL" def:Rank="13">
    <Decode>
      <TranslatedText xml:lang="en">VAGINAL</TranslatedText>
    </Decode>
  </CodeListItem>
</CodeList>
<CodeList OID="COLOR" Name="COLOR" DataType="text">
  <CodeListItem CodedValue="N" def:Rank="1">
    <Decode>
      <TranslatedText xml:lang="en">Normal</TranslatedText>
    </Decode>
  </CodeListItem>
  <CodeListItem CodedValue="A" def:Rank="2">
    <Decode>
      <TranslatedText xml:lang="en">Abnormal</TranslatedText>
    </Decode>
  </CodeListItem>
</CodeList>
<CodeList OID="COUNTRY" Name="COUNTRY" DataType="text">
  <CodeListItem CodedValue="USA" def:Rank="1">
    <Decode>
      <TranslatedText xml:lang="en">USA</TranslatedText>
    </Decode>
  </CodeListItem>
</CodeList>
<CodeList OID="DISCCD" Name="DISCCD" DataType="text">
  <CodeListItem CodedValue="COMPLETED" def:Rank="1">
    <Decode>
      <TranslatedText xml:lang="en">COMPLETED</TranslatedText>
    </Decode>
  </CodeListItem>
  <CodeListItem CodedValue="ADVERSE EVENT" def:Rank="2">
    <Decode>
      <TranslatedText xml:lang="en">ADVERSE EVENT</TranslatedText>
    </Decode>
  </CodeListItem>
  <CodeListItem CodedValue="DEATH" def:Rank="3">
    <Decode>
      <TranslatedText xml:lang="en">DEATH</TranslatedText>
    </Decode>
  </CodeListItem>
  <CodeListItem CodedValue="LACK OF EFFICACY" def:Rank="4">
    <Decode>
      <TranslatedText xml:lang="en">LACK OF EFFICACY</TranslatedText>
    </Decode>
  </CodeListItem>
  <CodeListItem CodedValue="LOST TO FOLLOW-UP" def:Rank="5">
    <Decode>
      <TranslatedText xml:lang="en">LOST TO FOLLOW-UP</TranslatedText>
    </Decode>
  </CodeListItem>
  <CodeListItem CodedValue="WITHDRAWAL BY SUBJECT" def:Rank="6">
    <Decode>
      <TranslatedText xml:lang="en">WITHDRAWAL BY SUBJECT</TranslatedText>
    </Decode>
  </CodeListItem>
  <CodeListItem CodedValue="SCREEN FAILURE" def:Rank="7">
    <Decode>
      <TranslatedText xml:lang="en">SCREEN FAILURE</TranslatedText>
    </Decode>
  </CodeListItem>
  <CodeListItem CodedValue="STUDY TERMINATED BY SPONSOR" def:Rank="8">
    <Decode>
      <TranslatedText xml:lang="en">STUDY TERMINATED BY SPONSOR</TranslatedText>
    </Decode>
  </CodeListItem>
  <CodeListItem CodedValue="PHYSICIAN DECISION" def:Rank="9">
    <Decode>
      <TranslatedText xml:lang="en">PHYSICIAN DECISION</TranslatedText>
    </Decode>
  </CodeListItem>
  <CodeListItem CodedValue="PROTOCOL VIOLATION" def:Rank="10">
    <Decode>
      <TranslatedText xml:lang="en">PROTOCOL VIOLATION</TranslatedText>
    </Decode>
  </CodeListItem>
  <CodeListItem CodedValue="FINAL LAB VISIT" def:Rank="11">
    <Decode>
      <TranslatedText xml:lang="en">FINAL LAB VISIT</TranslatedText>
    </Decode>
  </CodeListItem>
  <CodeListItem CodedValue="FINAL RETRIEVAL VISIT" def:Rank="12">
    <Decode>
      <TranslatedText xml:lang="en">FINAL RETRIEVAL VISIT</TranslatedText>
    </Decode>
  </CodeListItem>
</CodeList>
<CodeList OID="DISTSC" Name="DISTSC" DataType="integer">
  <CodeListItem CodedValue="0" def:Rank="1">
    <Decode>
      <TranslatedText xml:lang="en">0</TranslatedText>
    </Decode>
  </CodeListItem>
  <CodeListItem CodedValue="1" def:Rank="2">
    <Decode>
      <TranslatedText xml:lang="en">1</TranslatedText>
    </Decode>
  </CodeListItem>
  <CodeListItem CodedValue="2" def:Rank="3">
    <Decode>
      <TranslatedText xml:lang="en">2</TranslatedText>
    </Decode>
  </CodeListItem>
  <CodeListItem CodedValue="3" def:Rank="4">
    <Decode>
      <TranslatedText xml:lang="en">3</TranslatedText>
    </Decode>
  </CodeListItem>
  <CodeListItem CodedValue="4" def:Rank="5">
    <Decode>
      <TranslatedText xml:lang="en">4</TranslatedText>
    </Decode>
  </CodeListItem>
  <CodeListItem CodedValue="5" def:Rank="6">
    <Decode>
      <TranslatedText xml:lang="en">5</TranslatedText>
    </Decode>
  </CodeListItem>
</CodeList>
<CodeList OID="DSCAT" Name="DSCAT" DataType="text">
  <CodeListItem CodedValue="DISPOSITION EVENT" def:Rank="1">
    <Decode>
      <TranslatedText xml:lang="en">DISPOSITION EVENT</TranslatedText>
    </Decode>
  </CodeListItem>
  <CodeListItem CodedValue="OTHER EVENT" def:Rank="2">
    <Decode>
      <TranslatedText xml:lang="en">OTHER EVENT</TranslatedText>
    </Decode>
  </CodeListItem>
</CodeList>
<CodeList OID="ELEMENT" Name="ELEMENT" DataType="text">
  <CodeListItem CodedValue="Screen" def:Rank="1">
    <Decode>
      <TranslatedText xml:lang="en">Screen</TranslatedText>
    </Decode>
  </CodeListItem>
  <CodeListItem CodedValue="Placebo" def:Rank="2">
    <Decode>
      <TranslatedText xml:lang="en">Placebo</TranslatedText>
    </Decode>
  </CodeListItem>
  <CodeListItem CodedValue="Low" def:Rank="3">
    <Decode>
      <TranslatedText xml:lang="en">Low</TranslatedText>
    </Decode>
  </CodeListItem>
  <CodeListItem CodedValue="High_Start" def:Rank="4">
    <Decode>
      <TranslatedText xml:lang="en">High_Start</TranslatedText>
    </Decode>
  </CodeListItem>
  <CodeListItem CodedValue="High_Middle" def:Rank="5">
    <Decode>
      <TranslatedText xml:lang="en">High_Middle</TranslatedText>
    </Decode>
  </CodeListItem>
  <CodeListItem CodedValue="High_End" def:Rank="6">
    <Decode>
      <TranslatedText xml:lang="en">High_End</TranslatedText>
    </Decode>
  </CodeListItem>
  <CodeListItem CodedValue="Follow_up" def:Rank="7">
    <Decode>
      <TranslatedText xml:lang="en">Follow_up</TranslatedText>
    </Decode>
  </CodeListItem>
</CodeList>
<CodeList OID="EPOCH" Name="EPOCH" DataType="text">
  <CodeListItem CodedValue="Screening" def:Rank="1">
    <Decode>
      <TranslatedText xml:lang="en">Screening</TranslatedText>
    </Decode>
  </CodeListItem>
  <CodeListItem CodedValue="Treatment" def:Rank="2">
    <Decode>
      <TranslatedText xml:lang="en">Treatment</TranslatedText>
    </Decode>
  </CodeListItem>
</CodeList>
<CodeList OID="ETCD" Name="ETCD" DataType="text">
  <CodeListItem CodedValue="SCRN" def:Rank="1">
    <Decode>
      <TranslatedText xml:lang="en">Screen</TranslatedText>
    </Decode>
  </CodeListItem>
  <CodeListItem CodedValue="PBO" def:Rank="2">
    <Decode>
      <TranslatedText xml:lang="en">Placebo</TranslatedText>
    </Decode>
  </CodeListItem>
  <CodeListItem CodedValue="LO" def:Rank="3">
    <Decode>
      <TranslatedText xml:lang="en">Low</TranslatedText>
    </Decode>
  </CodeListItem>
  <CodeListItem CodedValue="HIS" def:Rank="4">
    <Decode>
      <TranslatedText xml:lang="en">High_Start</TranslatedText>
    </Decode>
  </CodeListItem>
  <CodeListItem CodedValue="HIM" def:Rank="5">
    <Decode>
      <TranslatedText xml:lang="en">High_Middle</TranslatedText>
    </Decode>
  </CodeListItem>
  <CodeListItem CodedValue="HIE" def:Rank="6">
    <Decode>
      <TranslatedText xml:lang="en">High_End</TranslatedText>
    </Decode>
  </CodeListItem>
  <CodeListItem CodedValue="FOLO" def:Rank="7">
    <Decode>
      <TranslatedText xml:lang="en">Follow_up</TranslatedText>
    </Decode>
  </CodeListItem>
  <CodeListItem CodedValue="UNPLAN" def:Rank="8">
    <Decode>
      <TranslatedText xml:lang="en">Unplanned</TranslatedText>
    </Decode>
  </CodeListItem>
</CodeList>
<CodeList OID="ETHNIC" Name="ETHNIC" DataType="text">
  <CodeListItem CodedValue="NOT HISPANIC OR LATINO" def:Rank="1">
    <Decode>
      <TranslatedText xml:lang="en">NOT HISPANIC OR LATINO</TranslatedText>
    </Decode>
  </CodeListItem>
  <CodeListItem CodedValue="HISPANIC OR LATINO" def:Rank="2">
    <Decode>
      <TranslatedText xml:lang="en">HISPANIC OR LATINO</TranslatedText>
    </Decode>
  </CodeListItem>
</CodeList>
<CodeList OID="EXDOSEU" Name="EXDOSEU" DataType="text">
  <CodeListItem CodedValue="mg" def:Rank="1">
    <Decode>
      <TranslatedText xml:lang="en">mg</TranslatedText>
    </Decode>
  </CodeListItem>
</CodeList>
<CodeList OID="EXDOSFRM" Name="EXDOSFRM" DataType="text">
  <CodeListItem CodedValue="PATCH" def:Rank="1">
    <Decode>
      <TranslatedText xml:lang="en">PATCH</TranslatedText>
    </Decode>
  </CodeListItem>
</CodeList>
<CodeList OID="EXFREQ" Name="EXFREQ" DataType="text">
  <CodeListItem CodedValue="QD" def:Rank="1">
    <Decode>
      <TranslatedText xml:lang="en">QD</TranslatedText>
    </Decode>
  </CodeListItem>
</CodeList>
<CodeList OID="EXROUTE" Name="EXROUTE" DataType="text">
  <CodeListItem CodedValue="TRANSDERMAL" def:Rank="1">
    <Decode>
      <TranslatedText xml:lang="en">TRANSDERMAL</TranslatedText>
    </Decode>
  </CodeListItem>
</CodeList>
<CodeList OID="EXTRT" Name="EXTRT" DataType="text">
  <CodeListItem CodedValue="PLACEBO" def:Rank="1">
    <Decode>
      <TranslatedText xml:lang="en">PLACEBO</TranslatedText>
    </Decode>
  </CodeListItem>
  <CodeListItem CodedValue="XANOMELINE" def:Rank="2">
    <Decode>
      <TranslatedText xml:lang="en">XANOMELINE</TranslatedText>
    </Decode>
  </CodeListItem>
</CodeList>
<CodeList OID="FREQSC" Name="FREQSC" DataType="integer">
  <CodeListItem CodedValue="1" def:Rank="1">
    <Decode>
      <TranslatedText xml:lang="en">1</TranslatedText>
    </Decode>
  </CodeListItem>
  <CodeListItem CodedValue="2" def:Rank="2">
    <Decode>
      <TranslatedText xml:lang="en">2</TranslatedText>
    </Decode>
  </CodeListItem>
  <CodeListItem CodedValue="3" def:Rank="3">
    <Decode>
      <TranslatedText xml:lang="en">3</TranslatedText>
    </Decode>
  </CodeListItem>
  <CodeListItem CodedValue="4" def:Rank="4">
    <Decode>
      <TranslatedText xml:lang="en">4</TranslatedText>
    </Decode>
  </CodeListItem>
</CodeList>
<CodeList OID="IECAT" Name="IECAT" DataType="text">
  <CodeListItem CodedValue="INCLUSION" def:Rank="1">
    <Decode>
      <TranslatedText xml:lang="en">INCLUSION</TranslatedText>
    </Decode>
  </CodeListItem>
  <CodeListItem CodedValue="EXCLUSION" def:Rank="2">
    <Decode>
      <TranslatedText xml:lang="en">EXCLUSION</TranslatedText>
    </Decode>
  </CodeListItem>
</CodeList>
<CodeList OID="IETEST" Name="IETEST" DataType="text">
  <CodeListItem CodedValue="Males and postmenopausal females at least 50 years of age." def:Rank="1">
    <Decode>
      <TranslatedText xml:lang="en">Males and postmenopausal females at least 50 years of age.</TranslatedText>
    </Decode>
  </CodeListItem>
  <CodeListItem CodedValue="Diagnosis of probable AD as defined by NINCDS and the ADRDA guidelines (Protocol Attachment LZZT.7)." def:Rank="2">
    <Decode>
      <TranslatedText xml:lang="en">Diagnosis of probable AD as defined by NINCDS and the ADRDA guidelines (Protocol Attachment LZZT.7).</TranslatedText>
    </Decode>
  </CodeListItem>
  <CodeListItem CodedValue="MMSE score of 10 to 23." def:Rank="3">
    <Decode>
      <TranslatedText xml:lang="en">MMSE score of 10 to 23.</TranslatedText>
    </Decode>
  </CodeListItem>
  <CodeListItem CodedValue="Modified Hachinski Ischemic Scale score of &lt;= 4. (Protocol Attachment LZZT.8)." def:Rank="4">
    <Decode>
      <TranslatedText xml:lang="en">Modified Hachinski Ischemic Scale score of &lt;= 4. (Protocol Attachment LZZT.8).</TranslatedText>
    </Decode>
  </CodeListItem>
  <CodeListItem CodedValue="CNS imaging (CT scan or MRI of brain) compatible with AD within past 1 year." def:Rank="5">
    <Decode>
      <TranslatedText xml:lang="en">CNS imaging (CT scan or MRI of brain) compatible with AD within past 1 year.</TranslatedText>
    </Decode>
  </CodeListItem>
  <CodeListItem CodedValue="Investigator has obtained informed consent signed by the patient (and/or legal representative) and by the caregiver." def:Rank="6">
    <Decode>
      <TranslatedText xml:lang="en">Investigator has obtained informed consent signed by the patient (and/or legal representative) and by the caregiver.</TranslatedText>
    </Decode>
  </CodeListItem>
  <CodeListItem CodedValue="Geographic proximity to investigator&apos;s site that allows adequate follow-up." def:Rank="7">
    <Decode>
      <TranslatedText xml:lang="en">Geographic proximity to investigator&apos;s site that allows adequate follow-up.</TranslatedText>
    </Decode>
  </CodeListItem>
  <CodeListItem CodedValue="Caregiverwill monitor administration of prescribed medications, and will be responsible for the overall care of the patient at home." def:Rank="8">
    <Decode>
