{"Conformance_Details": {"Report_Generation": "2026-01-23T13:58:50", "Total_Runtime": "47.43 seconds", "CORE_Engine_Version": "0.14.2", "Issue_Limit_Per_Rule": "None", "Issue_Limit_Per_Dataset": "None", "Issue_Limit_Per_Sheet": null, "Standard": "SDTMIG", "Version": "V3.4", "CT_Version": "sdtmct-2020-12-18", "Define_XML_Version": "2.1.0"}, "Dataset_Details": [{"filename": "AE", "label": "Adverse Events", "path": "C:\\wt\\git\\cdisc-data-examples\\DataExchange-DatasetJson\\sdtm\\xpt", "modification_date": "2020-08-21T09:14:28", "size_kb": 38.08, "length": 74}, {"filename": "CM", "label": "Concomitant Medications", "path": "C:\\wt\\git\\cdisc-data-examples\\DataExchange-DatasetJson\\sdtm\\xpt", "modification_date": "2020-08-21T09:14:26", "size_kb": 39.44, "length": 68}, {"filename": "DD", "label": "Death Details", "path": "C:\\wt\\git\\cdisc-data-examples\\DataExchange-DatasetJson\\sdtm\\xpt", "modification_date": "2020-08-21T09:14:25", "size_kb": 4.08, "length": 3}, {"filename": "DI", "label": "Device Identifiers", "path": "C:\\wt\\git\\cdisc-data-examples\\DataExchange-DatasetJson\\sdtm\\xpt", "modification_date": "2020-08-21T09:14:24", "size_kb": 16.8, "length": 34}, {"filename": "DM", "label": "Demographics", "path": "C:\\wt\\git\\cdisc-data-examples\\DataExchange-DatasetJson\\sdtm\\xpt", "modification_date": "2020-08-21T09:14:29", "size_kb": 13.04, "length": 18}, {"filename": "DS", "label": "Disposition", "path": "C:\\wt\\git\\cdisc-data-examples\\DataExchange-DatasetJson\\sdtm\\xpt", "modification_date": "2020-08-21T09:14:29", "size_kb": 22.24, "length": 53}, {"filename": "EC", "label": "Exposure as Collected", "path": "C:\\wt\\git\\cdisc-data-examples\\DataExchange-DatasetJson\\sdtm\\xpt", "modification_date": "2020-08-21T09:14:26", "size_kb": 848.0, "length": 1590}, {"filename": "EX", "label": "Exposure", "path": "C:\\wt\\git\\cdisc-data-examples\\DataExchange-DatasetJson\\sdtm\\xpt", "modification_date": "2020-08-21T09:14:26", "size_kb": 823.12, "length": 1583}, {"filename": "FA", "label": "Findings About Events or Interventions", "path": "C:\\wt\\git\\cdisc-data-examples\\DataExchange-DatasetJson\\sdtm\\xpt", "modification_date": "2020-08-21T09:14:23", "size_kb": 29.68, "length": 78}, {"filename": "FT", "label": "Functional Tests", "path": "C:\\wt\\git\\cdisc-data-examples\\DataExchange-DatasetJson\\sdtm\\xpt", "modification_date": "2020-08-21T09:14:24", "size_kb": 6058.16, "length": 4488}, {"filename": "IE", "label": "Inclusion/Exclusion Criteria Not Met", "path": "C:\\wt\\git\\cdisc-data-examples\\DataExchange-DatasetJson\\sdtm\\xpt", "modification_date": "2020-08-21T09:14:25", "size_kb": 2.72, "length": 1}, {"filename": "LB", "label": "Laboratory Test Results", "path": "C:\\wt\\git\\cdisc-data-examples\\DataExchange-DatasetJson\\sdtm\\xpt", "modification_date": "2020-08-21T09:14:29", "size_kb": 2763.04, "length": 3488}, {"filename": "MH", "label": "Medical History", "path": "C:\\wt\\git\\cdisc-data-examples\\DataExchange-DatasetJson\\sdtm\\xpt", "modification_date": "2020-08-21T09:14:27", "size_kb": 3.2, "length": 17}, {"filename": "OE", "label": "Ophthalmic Examinations", "path": "C:\\wt\\git\\cdisc-data-examples\\DataExchange-DatasetJson\\sdtm\\xpt", "modification_date": "2020-08-21T09:14:26", "size_kb": 265.2, "length": 285}, {"filename": "QSPH", "label": "Questionnaires (PHQ-9)", "path": "C:\\wt\\git\\cdisc-data-examples\\DataExchange-DatasetJson\\sdtm\\xpt", "modification_date": "2020-08-21T09:14:28", "size_kb": 131.84, "length": 330}, {"filename": "QSSL", "label": "Questionnaires (SQLS)", "path": "C:\\wt\\git\\cdisc-data-examples\\DataExchange-DatasetJson\\sdtm\\xpt", "modification_date": "2020-08-21T09:14:28", "size_kb": 50.8, "length": 135}, {"filename": "RELREC", "label": "Related Records", "path": "C:\\wt\\git\\cdisc-data-examples\\DataExchange-DatasetJson\\sdtm\\xpt", "modification_date": "2020-08-21T09:14:25", "size_kb": 5.6, "length": 6}, {"filename": "RS", "label": "Disease Response and Clin Classification", "path": "C:\\wt\\git\\cdisc-data-examples\\DataExchange-DatasetJson\\sdtm\\xpt", "modification_date": "2020-08-21T09:14:23", "size_kb": 209.76, "length": 375}, {"filename": "SE", "label": "Subject Elements", "path": "C:\\wt\\git\\cdisc-data-examples\\DataExchange-DatasetJson\\sdtm\\xpt", "modification_date": "2020-08-21T09:14:28", "size_kb": 7.04, "length": 43}, {"filename": "SUPPDM", "label": "Supplemental Qualifiers for DM", "path": "C:\\wt\\git\\cdisc-data-examples\\DataExchange-DatasetJson\\sdtm\\xpt", "modification_date": "2020-08-21T09:14:27", "size_kb": 4.4, "length": 3}, {"filename": "SUPPEC", "label": "Supplemental Qualifiers for EC", "path": "C:\\wt\\git\\cdisc-data-examples\\DataExchange-DatasetJson\\sdtm\\xpt", "modification_date": "2020-08-21T09:14:22", "size_kb": 8.4, "length": 7}, {"filename": "SV", "label": "Subject Visits", "path": "C:\\wt\\git\\cdisc-data-examples\\DataExchange-DatasetJson\\sdtm\\xpt", "modification_date": "2020-08-21T09:14:27", "size_kb": 78.64, "length": 164}, {"filename": "TA", "label": "Trial Arms", "path": "C:\\wt\\git\\cdisc-data-examples\\DataExchange-DatasetJson\\sdtm\\xpt", "modification_date": "2020-08-21T09:14:26", "size_kb": 6.16, "length": 8}, {"filename": "TE", "label": "Trial Elements", "path": "C:\\wt\\git\\cdisc-data-examples\\DataExchange-DatasetJson\\sdtm\\xpt", "modification_date": "2020-08-21T09:14:27", "size_kb": 3.84, "length": 5}, {"filename": "TI", "label": "Trial Inclusion/Exclusion Criteria", "path": "C:\\wt\\git\\cdisc-data-examples\\DataExchange-DatasetJson\\sdtm\\xpt", "modification_date": "2020-08-21T09:14:29", "size_kb": 28.08, "length": 62}, {"filename": "TS", "label": "Trial Summary", "path": "C:\\wt\\git\\cdisc-data-examples\\DataExchange-DatasetJson\\sdtm\\xpt", "modification_date": "2020-08-21T09:14:24", "size_kb": 57.12, "length": 51}, {"filename": "TV", "label": "Trial Visits", "path": "C:\\wt\\git\\cdisc-data-examples\\DataExchange-DatasetJson\\sdtm\\xpt", "modification_date": "2020-08-21T09:14:29", "size_kb": 10.64, "length": 14}, {"filename": "VS", "label": "Vital Signs", "path": "C:\\wt\\git\\cdisc-data-examples\\DataExchange-DatasetJson\\sdtm\\xpt", "modification_date": "2020-08-21T09:14:28", "size_kb": 802.64, "length": 1414}], "Issue_Summary": [{"dataset": "ae.xpt", "core_id": "CORE-000266", "message": "If AESER = \"N\" then none of the seriousness criteria (AESCAN, AESCONG, AESDISAB, AESDTH, AESHOSP, AESLIFE, AESOD, AESMIE) could be equal to \"Y\".", "issues": 1}, {"dataset": "ae.xpt", "core_id": "CORE-000356", "message": "At least one Required variable has a null value", "issues": 74}, {"dataset": "ae.xpt", "core_id": "CORE-000766", "message": "Related record is present in the parent domain dataset and \"Other, specify\" value was coded.", "issues": 99}, {"dataset": "ae.xpt", "core_id": "CORE-000841", "message": "AEENDTC in AE dataset of AE where AEOUT = 'FATAL' is not equal to DTHDTC in the DM dataset.", "issues": 2}, {"dataset": "dm.xpt", "core_id": "CORE-000238", "message": "RFXENDTC does not equal the latest value of EX.EXSTDTC or EX.EXENDTC", "issues": 1}, {"dataset": "ds.xpt", "core_id": "CORE-000767", "message": "Parent record exists and DSDECOD is not null, but FAOBJ is not equal to DSDECOD.", "issues": 18}, {"dataset": "fa.xpt", "core_id": "CORE-000358", "message": "LNKGRP variable is not found in any of the other domains.", "issues": 1}, {"dataset": "fa.xpt", "core_id": "CORE-000744", "message": "Related record is present in the parent domain dataset but FAOBJ is not equal to the \"TERM\", \"TRT\" or \"DECOD\" of the parent domain.", "issues": 78}, {"dataset": "ft.xpt", "core_id": "CORE-000720", "message": "FTDTC is greater than RFPENDTC", "issues": 408}, {"dataset": "ft.xpt", "core_id": "CORE-000915", "message": "There are multiple records per assigned last observation before exposure flag (FTLOBXFL).", "issues": 1666}, {"dataset": "lb.xpt", "core_id": "CORE-000289", "message": "LBORRES is not a continuous measurement but LBORNRHI is not empty.", "issues": 1}, {"dataset": "lb.xpt", "core_id": "CORE-000290", "message": "LBORRES is not a continuous measurement but LBORNRLO is not empty.", "issues": 1}, {"dataset": "lb.xpt", "core_id": "CORE-000298", "message": "LBORRES is not a continuous measurment but LBSTNRLO is not empty.", "issues": 1}, {"dataset": "lb.xpt", "core_id": "CORE-000299", "message": "LBORRES is not a continuous measurement but LBSTNRHI is not empty.", "issues": 1}, {"dataset": "lb.xpt", "core_id": "CORE-000542", "message": "LBSTRESC is numeric but LBSTRESN is not populated or not equal to LBSTRESC.", "issues": 301}, {"dataset": "lb.xpt", "core_id": "CORE-000720", "message": "LBDTC is greater than RFPENDTC", "issues": 165}, {"dataset": "oe.xpt", "core_id": "CORE-000334", "message": "At least one expected variable is missing from dataset", "issues": 1}, {"dataset": "oe.xpt", "core_id": "CORE-000915", "message": "There are multiple records per assigned last observation before exposure flag (OELOBXFL).", "issues": 34}, {"dataset": "qsph.xpt, qssl.xpt", "core_id": "CORE-000539", "message": "Split dataset is present but the two-Letter parent domain is missing.", "issues": 2}, {"dataset": "suppec.xpt", "core_id": "CORE-000783", "message": "SUPP.QNAM is present in the dataset, but the value of SUPP.QNAM equals a variable name defined in the corresponding SDTM version.", "issues": 7}, {"dataset": "sv.xpt", "core_id": "CORE-000334", "message": "At least one expected variable is missing from dataset", "issues": 1}, {"dataset": "ts.xpt", "core_id": "CORE-000741", "message": "The set  ('INTMODEL\u2019, 'INTTYPE','PCLASS') is not in the list of TSPARAMCD with TSVAL populated.", "issues": 1}], "Issue_Details": [{"core_id": "CORE-000238", "message": "RFXENDTC does not equal the latest value of EX.EXSTDTC or EX.EXENDTC", "executability": "fully executable", "dataset": "dm.xpt", "USUBJID": "CDISC008", "row": 8, "SEQ": "", "variables": ["$max_ex_exendtc", "$max_ex_exstdtc", "RFXENDTC"], "values": ["2014-10-31", "2014-10-31", "2014-11-01"]}, {"core_id": "CORE-000266", "message": "If AESER = \"N\" then none of the seriousness criteria (AESCAN, AESCONG, AESDISAB, AESDTH, AESHOSP, AESLIFE, AESOD, AESMIE) could be equal to \"Y\".", "executability": "fully executable", "dataset": "ae.xpt", "USUBJID": "CDISC003", "row": 24, "SEQ": 13, "variables": ["AESCAN", "AESCONG", "AESDISAB", "AESDTH", "AESER", "AESHOSP", "AESLIFE", "AESMIE", "AESOD"], "values": ["N", "N", "N", "N", "Y", "N", "N", "Not in dataset", "N"]}, {"core_id": "CORE-000289", "message": "LBORRES is not a continuous measurement but LBORNRHI is not empty.", "executability": "fully executable", "dataset": "lb.xpt", "USUBJID": "CDISC001", "row": 87, "SEQ": 87, "variables": ["LBORNRHI", "LBORRES"], "values": ["250", "<40"]}, {"core_id": "CORE-000290", "message": "LBORRES is not a continuous measurement but LBORNRLO is not empty.", "executability": "fully executable", "dataset": "lb.xpt", "USUBJID": "CDISC001", "row": 87, "SEQ": 87, "variables": ["LBORNRLO", "LBORRES"], "values": ["50", "<40"]}, {"core_id": "CORE-000298", "message": "LBORRES is not a continuous measurment but LBSTNRLO is not empty.", "executability": "fully executable", "dataset": "lb.xpt", "USUBJID": "CDISC001", "row": 87, "SEQ": 87, "variables": ["LBORRES", "LBSTNRLO"], "values": ["<40", "2.8"]}, {"core_id": "CORE-000299", "message": "LBORRES is not a continuous measurement but LBSTNRHI is not empty.", "executability": "fully executable", "dataset": "lb.xpt", "USUBJID": "CDISC001", "row": 87, "SEQ": 87, "variables": ["LBORRES", "LBSTNRHI"], "values": ["<40", "13.9"]}, {"core_id": "CORE-000334", "message": "At least one expected variable is missing from dataset", "executability": "fully executable", "dataset": "oe.xpt", "USUBJID": "", "row": "", "SEQ": "", "variables": ["$dataset_variables", "$expected_variables"], "values": ["['STUDYID', 'DOMAIN', 'USUBJID', 'FOCID', 'OESEQ', 'OETESTCD', 'OETEST', 'OEORRES', 'OESTRESC', 'OELOC', 'OELAT', 'OEMETHOD', 'OELOBXFL', 'VISITNUM', 'VISIT', 'EPOCH', 'OEDTC', 'OEDY']", "['OEORRES', 'OEORRESU', 'OESTRESC', 'OESTRESN', 'OESTRESU', 'OELOC', 'OELAT', 'OEMETHOD', 'OELOBXFL', 'VISITNUM', 'OEDTC', 'OEDY']"]}, {"core_id": "CORE-000334", "message": "At least one expected variable is missing from dataset", "executability": "fully executable", "dataset": "sv.xpt", "USUBJID": "", "row": "", "SEQ": "", "variables": ["$dataset_variables", "$expected_variables"], "values": ["['STUDYID', 'DOMAIN', 'USUBJID', 'VISITNUM', 'VISIT', 'SVSTDTC', 'SVENDTC', 'SVSTDY', 'SVENDY', 'SVUPDES']", "['SVPRESP', 'SVOCCUR', 'SVSTDTC', 'SVENDTC']"]}, {"core_id": "CORE-000356", "message": "At least one Required variable has a null value", "executability": "fully executable", "dataset": "ae.xpt", "USUBJID": "", "row": 1, "SEQ": "", "variables": ["variable_name", "variable_value"], "values": ["AEDECOD", "null"]}, {"core_id": "CORE-000356", "message": "At least one Required variable has a null value", "executability": "fully executable", "dataset": "ae.xpt", "USUBJID": "", "row": 2, "SEQ": "", "variables": ["variable_name", "variable_value"], "values": ["AEDECOD", "null"]}, {"core_id": "CORE-000356", "message": "At least one Required variable has a null value", "executability": "fully executable", "dataset": "ae.xpt", "USUBJID": "", "row": 3, "SEQ": "", "variables": ["variable_name", "variable_value"], "values": ["AEDECOD", "null"]}, {"core_id": "CORE-000356", "message": "At least one Required variable has a null value", "executability": "fully executable", "dataset": "ae.xpt", "USUBJID": "", "row": 4, "SEQ": "", "variables": ["variable_name", "variable_value"], "values": ["AEDECOD", "null"]}, {"core_id": "CORE-000356", "message": "At least one Required variable has a null value", "executability": "fully executable", "dataset": "ae.xpt", "USUBJID": "", "row": 5, "SEQ": "", "variables": ["variable_name", "variable_value"], "values": ["AEDECOD", "null"]}, {"core_id": "CORE-000356", "message": "At least one Required variable has a null value", "executability": "fully executable", "dataset": "ae.xpt", "USUBJID": "", "row": 6, "SEQ": "", "variables": ["variable_name", "variable_value"], "values": ["AEDECOD", "null"]}, {"core_id": "CORE-000356", "message": "At least one Required variable has a null value", "executability": "fully executable", "dataset": "ae.xpt", "USUBJID": "", "row": 7, "SEQ": "", "variables": ["variable_name", "variable_value"], "values": ["AEDECOD", "null"]}, {"core_id": "CORE-000356", "message": "At least one Required variable has a null value", "executability": "fully executable", "dataset": "ae.xpt", "USUBJID": "", "row": 8, "SEQ": "", "variables": ["variable_name", "variable_value"], "values": ["AEDECOD", "null"]}, {"core_id": "CORE-000356", "message": "At least one Required variable has a null value", "executability": "fully executable", "dataset": "ae.xpt", "USUBJID": "", "row": 9, "SEQ": "", "variables": ["variable_name", "variable_value"], "values": ["AEDECOD", "null"]}, {"core_id": "CORE-000356", "message": "At least one Required variable has a null value", "executability": "fully executable", "dataset": "ae.xpt", "USUBJID": "", "row": 10, "SEQ": "", "variables": ["variable_name", "variable_value"], "values": ["AEDECOD", "null"]}, {"core_id": "CORE-000356", "message": "At least one Required variable has a null value", "executability": "fully executable", "dataset": "ae.xpt", "USUBJID": "", "row": 11, "SEQ": "", "variables": ["variable_name", "variable_value"], "values": ["AEDECOD", "null"]}, {"core_id": "CORE-000356", "message": "At least one Required variable has a null value", "executability": "fully executable", "dataset": "ae.xpt", "USUBJID": "", "row": 12, "SEQ": "", "variables": ["variable_name", "variable_value"], "values": ["AEDECOD", "null"]}, {"core_id": "CORE-000356", "message": "At least one Required variable has a null value", "executability": "fully executable", "dataset": "ae.xpt", "USUBJID": "", "row": 13, "SEQ": "", "variables": ["variable_name", "variable_value"], "values": ["AEDECOD", "null"]}, {"core_id": "CORE-000356", "message": "At least one Required variable has a null value", "executability": "fully executable", "dataset": "ae.xpt", "USUBJID": "", "row": 14, "SEQ": "", "variables": ["variable_name", "variable_value"], "values": ["AEDECOD", "null"]}, {"core_id": "CORE-000356", "message": "At least one Required variable has a null value", "executability": "fully executable", "dataset": "ae.xpt", "USUBJID": "", "row": 15, "SEQ": "", "variables": ["variable_name", "variable_value"], "values": ["AEDECOD", "null"]}, {"core_id": "CORE-000356", "message": "At least one Required variable has a null value", "executability": "fully executable", "dataset": "ae.xpt", "USUBJID": "", "row": 16, "SEQ": "", "variables": ["variable_name", "variable_value"], "values": ["AEDECOD", "null"]}, {"core_id": "CORE-000356", "message": "At least one Required variable has a null value", "executability": "fully executable", "dataset": "ae.xpt", "USUBJID": "", "row": 17, "SEQ": "", "variables": ["variable_name", "variable_value"], "values": ["AEDECOD", "null"]}, {"core_id": "CORE-000356", "message": "At least one Required variable has a null value", "executability": "fully executable", "dataset": "ae.xpt", "USUBJID": "", "row": 18, "SEQ": "", "variables": ["variable_name", "variable_value"], "values": ["AEDECOD", "null"]}, {"core_id": "CORE-000356", "message": "At least one Required variable has a null value", "executability": "fully executable", "dataset": "ae.xpt", "USUBJID": "", "row": 19, "SEQ": "", "variables": ["variable_name", "variable_value"], "values": ["AEDECOD", "null"]}, {"core_id": "CORE-000356", "message": "At least one Required variable has a null value", "executability": "fully executable", "dataset": "ae.xpt", "USUBJID": "", "row": 20, "SEQ": "", "variables": ["variable_name", "variable_value"], "values": ["AEDECOD", "null"]}, {"core_id": "CORE-000356", "message": "At least one Required variable has a null value", "executability": "fully executable", "dataset": "ae.xpt", "USUBJID": "", "row": 21, "SEQ": "", "variables": ["variable_name", "variable_value"], "values": ["AEDECOD", "null"]}, {"core_id": "CORE-000356", "message": "At least one Required variable has a null value", "executability": "fully executable", "dataset": "ae.xpt", "USUBJID": "", "row": 22, "SEQ": "", "variables": ["variable_name", "variable_value"], "values": ["AEDECOD", "null"]}, {"core_id": "CORE-000356", "message": "At least one Required variable has a null value", "executability": "fully executable", "dataset": "ae.xpt", "USUBJID": "", "row": 23, "SEQ": "", "variables": ["variable_name", "variable_value"], "values": ["AEDECOD", "null"]}, {"core_id": "CORE-000356", "message": "At least one Required variable has a null value", "executability": "fully executable", "dataset": "ae.xpt", "USUBJID": "", "row": 24, "SEQ": "", "variables": ["variable_name", "variable_value"], "values": ["AEDECOD", "null"]}, {"core_id": "CORE-000356", "message": "At least one Required variable has a null value", "executability": "fully executable", "dataset": "ae.xpt", "USUBJID": "", "row": 25, "SEQ": "", "variables": ["variable_name", "variable_value"], "values": ["AEDECOD", "null"]}, {"core_id": "CORE-000356", "message": "At least one Required variable has a null value", "executability": "fully executable", "dataset": "ae.xpt", "USUBJID": "", "row": 26, "SEQ": "", "variables": ["variable_name", "variable_value"], "values": ["AEDECOD", "null"]}, {"core_id": "CORE-000356", "message": "At least one Required variable has a null value", "executability": "fully executable", "dataset": "ae.xpt", "USUBJID": "", "row": 27, "SEQ": "", "variables": ["variable_name", "variable_value"], "values": ["AEDECOD", "null"]}, {"core_id": "CORE-000356", "message": "At least one Required variable has a null value", "executability": "fully executable", "dataset": "ae.xpt", "USUBJID": "", "row": 28, "SEQ": "", "variables": ["variable_name", "variable_value"], "values": ["AEDECOD", "null"]}, {"core_id": "CORE-000356", "message": "At least one Required variable has a null value", "executability": "fully executable", "dataset": "ae.xpt", "USUBJID": "", "row": 29, "SEQ": "", "variables": ["variable_name", "variable_value"], "values": ["AEDECOD", "null"]}, {"core_id": "CORE-000356", "message": "At least one Required variable has a null value", "executability": "fully executable", "dataset": "ae.xpt", "USUBJID": "", "row": 30, "SEQ": "", "variables": ["variable_name", "variable_value"], "values": ["AEDECOD", "null"]}, {"core_id": "CORE-000356", "message": "At least one Required variable has a null value", "executability": "fully executable", "dataset": "ae.xpt", "USUBJID": "", "row": 31, "SEQ": "", "variables": ["variable_name", "variable_value"], "values": ["AEDECOD", "null"]}, {"core_id": "CORE-000356", "message": "At least one Required variable has a null value", "executability": "fully executable", "dataset": "ae.xpt", "USUBJID": "", "row": 32, "SEQ": "", "variables": ["variable_name", "variable_value"], "values": ["AEDECOD", "null"]}, {"core_id": "CORE-000356", "message": "At least one Required variable has a null value", "executability": "fully executable", "dataset": "ae.xpt", "USUBJID": "", "row": 33, "SEQ": "", "variables": ["variable_name", "variable_value"], "values": ["AEDECOD", "null"]}, {"core_id": "CORE-000356", "message": "At least one Required variable has a null value", "executability": "fully executable", "dataset": "ae.xpt", "USUBJID": "", "row": 34, "SEQ": "", "variables": ["variable_name", "variable_value"], "values": ["AEDECOD", "null"]}, {"core_id": "CORE-000356", "message": "At least one Required variable has a null value", "executability": "fully executable", "dataset": "ae.xpt", "USUBJID": "", "row": 35, "SEQ": "", "variables": ["variable_name", "variable_value"], "values": ["AEDECOD", "null"]}, {"core_id": "CORE-000356", "message": "At least one Required variable has a null value", "executability": "fully executable", "dataset": "ae.xpt", "USUBJID": "", "row": 36, "SEQ": "", "variables": ["variable_name", "variable_value"], "values": ["AEDECOD", "null"]}, {"core_id": "CORE-000356", "message": "At least one Required variable has a null value", "executability": "fully executable", "dataset": "ae.xpt", "USUBJID": "", "row": 37, "SEQ": "", "variables": ["variable_name", "variable_value"], "values": ["AEDECOD", "null"]}, {"core_id": "CORE-000356", "message": "At least one Required variable has a null value", "executability": "fully executable", "dataset": "ae.xpt", "USUBJID": "", "row": 38, "SEQ": "", "variables": ["variable_name", "variable_value"], "values": ["AEDECOD", "null"]}, {"core_id": "CORE-000356", "message": "At least one Required variable has a null value", "executability": "fully executable", "dataset": "ae.xpt", "USUBJID": "", "row": 39, "SEQ": "", "variables": ["variable_name", "variable_value"], "values": ["AEDECOD", "null"]}, {"core_id": "CORE-000356", "message": "At least one Required variable has a null value", "executability": "fully executable", "dataset": "ae.xpt", "USUBJID": "", "row": 40, "SEQ": "", "variables": ["variable_name", "variable_value"], "values": ["AEDECOD", "null"]}, {"core_id": "CORE-000356", "message": "At least one Required variable has a null value", "executability": "fully executable", "dataset": "ae.xpt", "USUBJID": "", "row": 41, "SEQ": "", "variables": ["variable_name", "variable_value"], "values": ["AEDECOD", "null"]}, {"core_id": "CORE-000356", "message": "At least one Required variable has a null value", "executability": "fully executable", "dataset": "ae.xpt", "USUBJID": "", "row": 42, "SEQ": "", "variables": ["variable_name", "variable_value"], "values": ["AEDECOD", "null"]}, {"core_id": "CORE-000356", "message": "At least one Required variable has a null value", "executability": "fully executable", "dataset": "ae.xpt", "USUBJID": "", "row": 43, "SEQ": "", "variables": ["variable_name", "variable_value"], "values": ["AEDECOD", "null"]}, {"core_id": "CORE-000356", "message": "At least one Required variable has a null value", "executability": "fully executable", "dataset": "ae.xpt", "USUBJID": "", "row": 44, "SEQ": "", "variables": ["variable_name", "variable_value"], "values": ["AEDECOD", "null"]}, {"core_id": "CORE-000356", "message": "At least one Required variable has a null value", "executability": "fully executable", "dataset": "ae.xpt", "USUBJID": "", "row": 45, "SEQ": "", "variables": ["variable_name", "variable_value"], "values": ["AEDECOD", "null"]}, {"core_id": "CORE-000356", "message": "At least one Required variable has a null value", "executability": "fully executable", "dataset": "ae.xpt", "USUBJID": "", "row": 46, "SEQ": "", "variables": ["variable_name", "variable_value"], "values": ["AEDECOD", "null"]}, {"core_id": "CORE-000356", "message": "At least one Required variable has a null value", "executability": "fully executable", "dataset": "ae.xpt", "USUBJID": "", "row": 47, "SEQ": "", "variables": ["variable_name", "variable_value"], "values": ["AEDECOD", "null"]}, {"core_id": "CORE-000356", "message": "At least one Required variable has a null value", "executability": "fully executable", "dataset": "ae.xpt", "USUBJID": "", "row": 48, "SEQ": "", "variables": ["variable_name", "variable_value"], "values": ["AEDECOD", "null"]}, {"core_id": "CORE-000356", "message": "At least one Required variable has a null value", "executability": "fully executable", "dataset": "ae.xpt", "USUBJID": "", "row": 49, "SEQ": "", "variables": ["variable_name", "variable_value"], "values": ["AEDECOD", "null"]}, {"core_id": "CORE-000356", "message": "At least one Required variable has a null value", "executability": "fully executable", "dataset": "ae.xpt", "USUBJID": "", "row": 50, "SEQ": "", "variables": ["variable_name", "variable_value"], "values": ["AEDECOD", "null"]}, {"core_id": "CORE-000356", "message": "At least one Required variable has a null value", "executability": "fully executable", "dataset": "ae.xpt", "USUBJID": "", "row": 51, "SEQ": "", "variables": ["variable_name", "variable_value"], "values": ["AEDECOD", "null"]}, {"core_id": "CORE-000356", "message": "At least one Required variable has a null value", "executability": "fully executable", "dataset": "ae.xpt", "USUBJID": "", "row": 52, "SEQ": "", "variables": ["variable_name", "variable_value"], "values": ["AEDECOD", "null"]}, {"core_id": "CORE-000356", "message": "At least one Required variable has a null value", "executability": "fully executable", "dataset": "ae.xpt", "USUBJID": "", "row": 53, "SEQ": "", "variables": ["variable_name", "variable_value"], "values": ["AEDECOD", "null"]}, {"core_id": "CORE-000356", "message": "At least one Required variable has a null value", "executability": "fully executable", "dataset": "ae.xpt", "USUBJID": "", "row": 54, "SEQ": "", "variables": ["variable_name", "variable_value"], "values": ["AEDECOD", "null"]}, {"core_id": "CORE-000356", "message": "At least one Required variable has a null value", "executability": "fully executable", "dataset": "ae.xpt", "USUBJID": "", "row": 55, "SEQ": "", "variables": ["variable_name", "variable_value"], "values": ["AEDECOD", "null"]}, {"core_id": "CORE-000356", "message": "At least one Required variable has a null value", "executability": "fully executable", "dataset": "ae.xpt", "USUBJID": "", "row": 56, "SEQ": "", "variables": ["variable_name", "variable_value"], "values": ["AEDECOD", "null"]}, {"core_id": "CORE-000356", "message": "At least one Required variable has a null value", "executability": "fully executable", "dataset": "ae.xpt", "USUBJID": "", "row": 57, "SEQ": "", "variables": ["variable_name", "variable_value"], "values": ["AEDECOD", "null"]}, {"core_id": "CORE-000356", "message": "At least one Required variable has a null value", "executability": "fully executable", "dataset": "ae.xpt", "USUBJID": "", "row": 58, "SEQ": "", "variables": ["variable_name", "variable_value"], "values": ["AEDECOD", "null"]}, {"core_id": "CORE-000356", "message": "At least one Required variable has a null value", "executability": "fully executable", "dataset": "ae.xpt", "USUBJID": "", "row": 59, "SEQ": "", "variables": ["variable_name", "variable_value"], "values": ["AEDECOD", "null"]}, {"core_id": "CORE-000356", "message": "At least one Required variable has a null value", "executability": "fully executable", "dataset": "ae.xpt", "USUBJID": "", "row": 60, "SEQ": "", "variables": ["variable_name", "variable_value"], "values": ["AEDECOD", "null"]}, {"core_id": "CORE-000356", "message": "At least one Required variable has a null value", "executability": "fully executable", "dataset": "ae.xpt", "USUBJID": "", "row": 61, "SEQ": "", "variables": ["variable_name", "variable_value"], "values": ["AEDECOD", "null"]}, {"core_id": "CORE-000356", "message": "At least one Required variable has a null value", "executability": "fully executable", "dataset": "ae.xpt", "USUBJID": "", "row": 62, "SEQ": "", "variables": ["variable_name", "variable_value"], "values": ["AEDECOD", "null"]}, {"core_id": "CORE-000356", "message": "At least one Required variable has a null value", "executability": "fully executable", "dataset": "ae.xpt", "USUBJID": "", "row": 63, "SEQ": "", "variables": ["variable_name", "variable_value"], "values": ["AEDECOD", "null"]}, {"core_id": "CORE-000356", "message": "At least one Required variable has a null value", "executability": "fully executable", "dataset": "ae.xpt", "USUBJID": "", "row": 64, "SEQ": "", "variables": ["variable_name", "variable_value"], "values": ["AEDECOD", "null"]}, {"core_id": "CORE-000356", "message": "At least one Required variable has a null value", "executability": "fully executable", "dataset": "ae.xpt", "USUBJID": "", "row": 65, "SEQ": "", "variables": ["variable_name", "variable_value"], "values": ["AEDECOD", "null"]}, {"core_id": "CORE-000356", "message": "At least one Required variable has a null value", "executability": "fully executable", "dataset": "ae.xpt", "USUBJID": "", "row": 66, "SEQ": "", "variables": ["variable_name", "variable_value"], "values": ["AEDECOD", "null"]}, {"core_id": "CORE-000356", "message": "At least one Required variable has a null value", "executability": "fully executable", "dataset": "ae.xpt", "USUBJID": "", "row": 67, "SEQ": "", "variables": ["variable_name", "variable_value"], "values": ["AEDECOD", "null"]}, {"core_id": "CORE-000356", "message": "At least one Required variable has a null value", "executability": "fully executable", "dataset": "ae.xpt", "USUBJID": "", "row": 68, "SEQ": "", "variables": ["variable_name", "variable_value"], "values": ["AEDECOD", "null"]}, {"core_id": "CORE-000356", "message": "At least one Required variable has a null value", "executability": "fully executable", "dataset": "ae.xpt", "USUBJID": "", "row": 69, "SEQ": "", "variables": ["variable_name", "variable_value"], "values": ["AEDECOD", "null"]}, {"core_id": "CORE-000356", "message": "At least one Required variable has a null value", "executability": "fully executable", "dataset": "ae.xpt", "USUBJID": "", "row": 70, "SEQ": "", "variables": ["variable_name", "variable_value"], "values": ["AEDECOD", "null"]}, {"core_id": "CORE-000356", "message": "At least one Required variable has a null value", "executability": "fully executable", "dataset": "ae.xpt", "USUBJID": "", "row": 71, "SEQ": "", "variables": ["variable_name", "variable_value"], "values": ["AEDECOD", "null"]}, {"core_id": "CORE-000356", "message": "At least one Required variable has a null value", "executability": "fully executable", "dataset": "ae.xpt", "USUBJID": "", "row": 72, "SEQ": "", "variables": ["variable_name", "variable_value"], "values": ["AEDECOD", "null"]}, {"core_id": "CORE-000356", "message": "At least one Required variable has a null value", "executability": "fully executable", "dataset": "ae.xpt", "USUBJID": "", "row": 73, "SEQ": "", "variables": ["variable_name", "variable_value"], "values": ["AEDECOD", "null"]}, {"core_id": "CORE-000356", "message": "At least one Required variable has a null value", "executability": "fully executable", "dataset": "ae.xpt", "USUBJID": "", "row": 74, "SEQ": "", "variables": ["variable_name", "variable_value"], "values": ["AEDECOD", "null"]}, {"core_id": "CORE-000358", "message": "LNKGRP variable is not found in any of the other domains.", "executability": "fully executable", "dataset": "fa.xpt", "USUBJID": "", "row": "", "SEQ": "", "variables": ["$VARIABLE_COUNT", "FALNKGRP"], "values": ["1", "1"]}, {"core_id": "CORE-000539", "message": "Split dataset is present but the two-Letter parent domain is missing.", "executability": "fully executable", "dataset": "qsph.xpt", "USUBJID": "", "row": 1, "SEQ": "", "variables": ["$list_dataset_names", "dataset_name"], "values": ["['EC', 'LB', 'SUPPEC', 'OE', 'RELREC', 'DD', 'TS', 'SE', 'TE', 'QSSL', 'TV', 'CM', 'FT', 'FA', 'SV', 'SUPPDM', 'RS', 'DI', 'MH', 'DM', 'EX', 'IE', 'QSPH', 'DS', 'TA', 'VS', 'AE', 'TI']", "QSPH"]}, {"core_id": "CORE-000539", "message": "Split dataset is present but the two-Letter parent domain is missing.", "executability": "fully executable", "dataset": "qssl.xpt", "USUBJID": "", "row": 1, "SEQ": "", "variables": ["$list_dataset_names", "dataset_name"], "values": ["['EC', 'LB', 'SUPPEC', 'OE', 'RELREC', 'DD', 'TS', 'SE', 'TE', 'QSSL', 'TV', 'CM', 'FT', 'FA', 'SV', 'SUPPDM', 'RS', 'DI', 'MH', 'DM', 'EX', 'IE', 'QSPH', 'DS', 'TA', 'VS', 'AE', 'TI']", "QSSL"]}, {"core_id": "CORE-000542", "message": "LBSTRESC is numeric but LBSTRESN is not populated or not equal to LBSTRESC.", "executability": "fully executable", "dataset": "lb.xpt", "USUBJID": "CDISC001", "row": 6, "SEQ": 6, "variables": ["LBSTRESC", "LBSTRESN", "LBTESTCD"], "values": ["8.55", "8.549999999999999", "BILI"]}, {"core_id": "CORE-000542", "message": "LBSTRESC is numeric but LBSTRESN is not populated or not equal to LBSTRESC.", "executability": "fully executable", "dataset": "lb.xpt", "USUBJID": "CDISC001", "row": 18, "SEQ": 18, "variables": ["LBSTRESC", "LBSTRESN", "LBTESTCD"], "values": ["9.24694", "9.246939999999999", "HGB"]}, {"core_id": "CORE-000542", "message": "LBSTRESC is numeric but LBSTRESN is not populated or not equal to LBSTRESC.", "executability": "fully executable", "dataset": "lb.xpt", "USUBJID": "CDISC001", "row": 37, "SEQ": 37, "variables": ["LBSTRESC", "LBSTRESN", "LBTESTCD"], "values": ["4.99", "4.989999999999999", "WBC"]}, {"core_id": "CORE-000542", "message": "LBSTRESC is numeric but LBSTRESN is not populated or not equal to LBSTRESC.", "executability": "fully executable", "dataset": "lb.xpt", "USUBJID": "CDISC001", "row": 55, "SEQ": 55, "variables": ["LBSTRESC", "LBSTRESN", "LBTESTCD"], "values": ["9.06076", "9.060759999999998", "HGB"]}, {"core_id": "CORE-000542", "message": "LBSTRESC is numeric but LBSTRESN is not populated or not equal to LBSTRESC.", "executability": "fully executable", "dataset": "lb.xpt", "USUBJID": "CDISC001", "row": 68, "SEQ": 68, "variables": ["LBSTRESC", "LBSTRESN", "LBTESTCD"], "values": ["4.7", "4.699999999999999", "RBC"]}, {"core_id": "CORE-000542", "message": "LBSTRESC is numeric but LBSTRESN is not populated or not equal to LBSTRESC.", "executability": "fully executable", "dataset": "lb.xpt", "USUBJID": "CDISC001", "row": 89, "SEQ": 89, "variables": ["LBSTRESC", "LBSTRESN", "LBTESTCD"], "values": ["9.06076", "9.060759999999998", "HGB"]}, {"core_id": "CORE-000542", "message": "LBSTRESC is numeric but LBSTRESN is not populated or not equal to LBSTRESC.", "executability": "fully executable", "dataset": "lb.xpt", "USUBJID": "CDISC001", "row": 90, "SEQ": 90, "variables": ["LBSTRESC", "LBSTRESN", "LBTESTCD"], "values": ["4.7", "4.699999999999999", "K"]}, {"core_id": "CORE-000542", "message": "LBSTRESC is numeric but LBSTRESN is not populated or not equal to LBSTRESC.", "executability": "fully executable", "dataset": "lb.xpt", "USUBJID": "CDISC001", "row": 100, "SEQ": 100, "variables": ["LBSTRESC", "LBSTRESN", "LBTESTCD"], "values": ["4.7", "4.699999999999999", "RBC"]}, {"core_id": "CORE-000542", "message": "LBSTRESC is numeric but LBSTRESN is not populated or not equal to LBSTRESC.", "executability": "fully executable", "dataset": "lb.xpt", "USUBJID": "CDISC001", "row": 102, "SEQ": 102, "variables": ["LBSTRESC", "LBSTRESN", "LBTESTCD"], "values": ["5.4", "5.399999999999999", "WBC"]}, {"core_id": "CORE-000542", "message": "LBSTRESC is numeric but LBSTRESN is not populated or not equal to LBSTRESC.", "executability": "fully executable", "dataset": "lb.xpt", "USUBJID": "CDISC001", "row": 124, "SEQ": 124, "variables": ["LBSTRESC", "LBSTRESN", "LBTESTCD"], "values": ["8.925", "8.924999999999999", "UREAN"]}, {"core_id": "CORE-000542", "message": "LBSTRESC is numeric but LBSTRESN is not populated or not equal to LBSTRESC.", "executability": "fully executable", "dataset": "lb.xpt", "USUBJID": "CDISC001", "row": 145, "SEQ": 145, "variables": ["LBSTRESC", "LBSTRESN", "LBTESTCD"], "values": ["4.7", "4.699999999999999", "RBC"]}, {"core_id": "CORE-000542", "message": "LBSTRESC is numeric but LBSTRESN is not populated or not equal to LBSTRESC.", "executability": "fully executable", "dataset": "lb.xpt", "USUBJID": "CDISC001", "row": 153, "SEQ": 153, "variables": ["LBSTRESC", "LBSTRESN", "LBTESTCD"], "values": ["8.55", "8.549999999999999", "BILI"]}, {"core_id": "CORE-000542", "message": "LBSTRESC is numeric but LBSTRESN is not populated or not equal to LBSTRESC.", "executability": "fully executable", "dataset": "lb.xpt", "USUBJID": "CDISC001", "row": 156, "SEQ": 156, "variables": ["LBSTRESC", "LBSTRESN", "LBTESTCD"], "values": ["6.51672", "6.516719999999999", "CHOL"]}, {"core_id": "CORE-000542", "message": "LBSTRESC is numeric but LBSTRESN is not populated or not equal to LBSTRESC.", "executability": "fully executable", "dataset": "lb.xpt", "USUBJID": "CDISC001", "row": 163, "SEQ": 163, "variables": ["LBSTRESC", "LBSTRESN", "LBTESTCD"], "values": ["4.38529", "4.385289999999999", "GLUC"]}, {"core_id": "CORE-000542", "message": "LBSTRESC is numeric but LBSTRESN is not populated or not equal to LBSTRESC.", "executability": "fully executable", "dataset": "lb.xpt", "USUBJID": "CDISC001", "row": 165, "SEQ": 165, "variables": ["LBSTRESC", "LBSTRESN", "LBTESTCD"], "values": ["9.43312", "9.433119999999999", "HGB"]}, {"core_id": "CORE-000542", "message": "LBSTRESC is numeric but LBSTRESN is not populated or not equal to LBSTRESC.", "executability": "fully executable", "dataset": "lb.xpt", "USUBJID": "CDISC001", "row": 166, "SEQ": 166, "variables": ["LBSTRESC", "LBSTRESN", "LBTESTCD"], "values": ["4.7", "4.699999999999999", "K"]}, {"core_id": "CORE-000542", "message": "LBSTRESC is numeric but LBSTRESN is not populated or not equal to LBSTRESC.", "executability": "fully executable", "dataset": "lb.xpt", "USUBJID": "CDISC002", "row": 189, "SEQ": 7, "variables": ["LBSTRESC", "LBSTRESN", "LBTESTCD"], "values": ["6.426", "6.425999999999999", "UREAN"]}, {"core_id": "CORE-000542", "message": "LBSTRESC is numeric but LBSTRESN is not populated or not equal to LBSTRESC.", "executability": "fully executable", "dataset": "lb.xpt", "USUBJID": "CDISC002", "row": 200, "SEQ": 18, "variables": ["LBSTRESC", "LBSTRESN", "LBTESTCD"], "values": ["9.43312", "9.433119999999999", "HGB"]}, {"core_id": "CORE-000542", "message": "LBSTRESC is numeric but LBSTRESN is not populated or not equal to LBSTRESC.", "executability": "fully executable", "dataset": "lb.xpt", "USUBJID": "CDISC002", "row": 228, "SEQ": 46, "variables": ["LBSTRESC", "LBSTRESN", "LBTESTCD"], "values": ["4.31862", "4.318619999999999", "CHOL"]}, {"core_id": "CORE-000542", "message": "LBSTRESC is numeric but LBSTRESN is not populated or not equal to LBSTRESC.", "executability": "fully executable", "dataset": "lb.xpt", "USUBJID": "CDISC002", "row": 237, "SEQ": 55, "variables": ["LBSTRESC", "LBSTRESN", "LBTESTCD"], "values": ["8.56428", "8.564279999999998", "HGB"]}, {"core_id": "CORE-000542", "message": "LBSTRESC is numeric but LBSTRESN is not populated or not equal to LBSTRESC.", "executability": "fully executable", "dataset": "lb.xpt", "USUBJID": "CDISC002", "row": 263, "SEQ": 81, "variables": ["LBSTRESC", "LBSTRESN", "LBTESTCD"], "values": ["5.3013", "5.301299999999999", "CHOL"]}, {"core_id": "CORE-000542", "message": "LBSTRESC is numeric but LBSTRESN is not populated or not equal to LBSTRESC.", "executability": "fully executable", "dataset": "lb.xpt", "USUBJID": "CDISC002", "row": 272, "SEQ": 90, "variables": ["LBSTRESC", "LBSTRESN", "LBTESTCD"], "values": ["4.2", "4.199999999999999", "K"]}, {"core_id": "CORE-000542", "message": "LBSTRESC is numeric but LBSTRESN is not populated or not equal to LBSTRESC.", "executability": "fully executable", "dataset": "lb.xpt", "USUBJID": "CDISC002", "row": 282, "SEQ": 100, "variables": ["LBSTRESC", "LBSTRESN", "LBTESTCD"], "values": ["4.4", "4.399999999999999", "RBC"]}, {"core_id": "CORE-000542", "message": "LBSTRESC is numeric but LBSTRESN is not populated or not equal to LBSTRESC.", "executability": "fully executable", "dataset": "lb.xpt", "USUBJID": "CDISC002", "row": 293, "SEQ": 111, "variables": ["LBSTRESC", "LBSTRESN", "LBTESTCD"], "values": ["4.3962", "4.396199999999999", "CHOL"]}, {"core_id": "CORE-000542", "message": "LBSTRESC is numeric but LBSTRESN is not populated or not equal to LBSTRESC.", "executability": "fully executable", "dataset": "lb.xpt", "USUBJID": "CDISC002", "row": 299, "SEQ": 117, "variables": ["LBSTRESC", "LBSTRESN", "LBTESTCD"], "values": ["4.4408", "4.440799999999999", "GLUC"]}, {"core_id": "CORE-000542", "message": "LBSTRESC is numeric but LBSTRESN is not populated or not equal to LBSTRESC.", "executability": "fully executable", "dataset": "lb.xpt", "USUBJID": "CDISC002", "row": 323, "SEQ": 141, "variables": ["LBSTRESC", "LBSTRESN", "LBTESTCD"], "values": ["4.18932", "4.189319999999999", "CHOL"]}, {"core_id": "CORE-000542", "message": "LBSTRESC is numeric but LBSTRESN is not populated or not equal to LBSTRESC.", "executability": "fully executable", "dataset": "lb.xpt", "USUBJID": "CDISC002", "row": 329, "SEQ": 147, "variables": ["LBSTRESC", "LBSTRESN", "LBTESTCD"], "values": ["5.551", "5.550999999999999", "GLUC"]}, {"core_id": "CORE-000542", "message": "LBSTRESC is numeric but LBSTRESN is not populated or not equal to LBSTRESC.", "executability": "fully executable", "dataset": "lb.xpt", "USUBJID": "CDISC003", "row": 362, "SEQ": 18, "variables": ["LBSTRESC", "LBSTRESN", "LBTESTCD"], "values": ["9.06076", "9.060759999999998", "HGB"]}, {"core_id": "CORE-000542", "message": "LBSTRESC is numeric but LBSTRESN is not populated or not equal to LBSTRESC.", "executability": "fully executable", "dataset": "lb.xpt", "USUBJID": "CDISC003", "row": 390, "SEQ": 46, "variables": ["LBSTRESC", "LBSTRESN", "LBTESTCD"], "values": ["5.8185", "5.818499999999999", "CHOL"]}, {"core_id": "CORE-000542", "message": "LBSTRESC is numeric but LBSTRESN is not populated or not equal to LBSTRESC.", "executability": "fully executable", "dataset": "lb.xpt", "USUBJID": "CDISC003", "row": 412, "SEQ": 68, "variables": ["LBSTRESC", "LBSTRESN", "LBTESTCD"], "values": ["4.2", "4.199999999999999", "RBC"]}, {"core_id": "CORE-000542", "message": "LBSTRESC is numeric but LBSTRESN is not populated or not equal to LBSTRESC.", "executability": "fully executable", "dataset": "lb.xpt", "USUBJID": "CDISC003", "row": 422, "SEQ": 78, "variables": ["LBSTRESC", "LBSTRESN", "LBTESTCD"], "values": ["8.55", "8.549999999999999", "BILI"]}, {"core_id": "CORE-000542", "message": "LBSTRESC is numeric but LBSTRESN is not populated or not equal to LBSTRESC.", "executability": "fully executable", "dataset": "lb.xpt", "USUBJID": "CDISC003", "row": 433, "SEQ": 89, "variables": ["LBSTRESC", "LBSTRESN", "LBTESTCD"], "values": ["8.56428", "8.564279999999998", "HGB"]}, {"core_id": "CORE-000542", "message": "LBSTRESC is numeric but LBSTRESN is not populated or not equal to LBSTRESC.", "executability": "fully executable", "dataset": "lb.xpt", "USUBJID": "CDISC003", "row": 444, "SEQ": 100, "variables": ["LBSTRESC", "LBSTRESN", "LBTESTCD"], "values": ["4.4", "4.399999999999999", "RBC"]}, {"core_id": "CORE-000542", "message": "LBSTRESC is numeric but LBSTRESN is not populated or not equal to LBSTRESC.", "executability": "fully executable", "dataset": "lb.xpt", "USUBJID": "CDISC003", "row": 463, "SEQ": 119, "variables": ["LBSTRESC", "LBSTRESN", "LBTESTCD"], "values": ["8.25398", "8.253979999999999", "HGB"]}, {"core_id": "CORE-000542", "message": "LBSTRESC is numeric but LBSTRESN is not populated or not equal to LBSTRESC.", "executability": "fully executable", "dataset": "lb.xpt", "USUBJID": "CDISC003", "row": 474, "SEQ": 130, "variables": ["LBSTRESC", "LBSTRESN", "LBTESTCD"], "values": ["4.2", "4.199999999999999", "RBC"]}, {"core_id": "CORE-000542", "message": "LBSTRESC is numeric but LBSTRESN is not populated or not equal to LBSTRESC.", "executability": "fully executable", "dataset": "lb.xpt", "USUBJID": "CDISC003", "row": 475, "SEQ": 131, "variables": ["LBSTRESC", "LBSTRESN", "LBTESTCD"], "values": ["249.816", "249.81599999999997", "URATE"]}, {"core_id": "CORE-000542", "message": "LBSTRESC is numeric but LBSTRESN is not populated or not equal to LBSTRESC.", "executability": "fully executable", "dataset": "lb.xpt", "USUBJID": "CDISC003", "row": 476, "SEQ": 132, "variables": ["LBSTRESC", "LBSTRESN", "LBTESTCD"], "values": ["6.07", "6.069999999999999", "WBC"]}, {"core_id": "CORE-000542", "message": "LBSTRESC is numeric but LBSTRESN is not populated or not equal to LBSTRESC.", "executability": "fully executable", "dataset": "lb.xpt", "USUBJID": "CDISC003", "row": 482, "SEQ": 138, "variables": ["LBSTRESC", "LBSTRESN", "LBTESTCD"], "values": ["8.55", "8.549999999999999", "BILI"]}, {"core_id": "CORE-000542", "message": "LBSTRESC is numeric but LBSTRESN is not populated or not equal to LBSTRESC.", "executability": "fully executable", "dataset": "lb.xpt", "USUBJID": "CDISC003", "row": 483, "SEQ": 139, "variables": ["LBSTRESC", "LBSTRESN", "LBTESTCD"], "values": ["4.998", "4.997999999999999", "UREAN"]}, {"core_id": "CORE-000542", "message": "LBSTRESC is numeric but LBSTRESN is not populated or not equal to LBSTRESC.", "executability": "fully executable", "dataset": "lb.xpt", "USUBJID": "CDISC003", "row": 485, "SEQ": 141, "variables": ["LBSTRESC", "LBSTRESN", "LBTESTCD"], "values": ["6.23226", "6.232259999999999", "CHOL"]}, {"core_id": "CORE-000542", "message": "LBSTRESC is numeric but LBSTRESN is not populated or not equal to LBSTRESC.", "executability": "fully executable", "dataset": "lb.xpt", "USUBJID": "CDISC003", "row": 512, "SEQ": 168, "variables": ["LBSTRESC", "LBSTRESN", "LBTESTCD"], "values": ["8.55", "8.549999999999999", "BILI"]}, {"core_id": "CORE-000542", "message": "LBSTRESC is numeric but LBSTRESN is not populated or not equal to LBSTRESC.", "executability": "fully executable", "dataset": "lb.xpt", "USUBJID": "CDISC003", "row": 524, "SEQ": 180, "variables": ["LBSTRESC", "LBSTRESN", "LBTESTCD"], "values": ["8.44016", "8.440159999999999", "HGB"]}, {"core_id": "CORE-000542", "message": "LBSTRESC is numeric but LBSTRESN is not populated or not equal to LBSTRESC.", "executability": "fully executable", "dataset": "lb.xpt", "USUBJID": "CDISC003", "row": 537, "SEQ": 193, "variables": ["LBSTRESC", "LBSTRESN", "LBTESTCD"], "values": ["4.4", "4.399999999999999", "RBC"]}, {"core_id": "CORE-000542", "message": "LBSTRESC is numeric but LBSTRESN is not populated or not equal to LBSTRESC.", "executability": "fully executable", "dataset": "lb.xpt", "USUBJID": "CDISC004", "row": 547, "SEQ": 6, "variables": ["LBSTRESC", "LBSTRESN", "LBTESTCD"], "values": ["8.55", "8.549999999999999", "BILI"]}, {"core_id": "CORE-000542", "message": "LBSTRESC is numeric but LBSTRESN is not populated or not equal to LBSTRESC.", "executability": "fully executable", "dataset": "lb.xpt", "USUBJID": "CDISC004", "row": 548, "SEQ": 7, "variables": ["LBSTRESC", "LBSTRESN", "LBTESTCD"], "values": ["4.998", "4.997999999999999", "UREAN"]}, {"core_id": "CORE-000542", "message": "LBSTRESC is numeric but LBSTRESN is not populated or not equal to LBSTRESC.", "executability": "fully executable", "dataset": "lb.xpt", "USUBJID": "CDISC004", "row": 587, "SEQ": 46, "variables": ["LBSTRESC", "LBSTRESN", "LBTESTCD"], "values": ["5.12028", "5.120279999999999", "CHOL"]}, {"core_id": "CORE-000542", "message": "LBSTRESC is numeric but LBSTRESN is not populated or not equal to LBSTRESC.", "executability": "fully executable", "dataset": "lb.xpt", "USUBJID": "CDISC004", "row": 591, "SEQ": 50, "variables": ["LBSTRESC", "LBSTRESN", "LBTESTCD"], "values": ["88.4", "88.39999999999998", "CREAT"]}, {"core_id": "CORE-000542", "message": "LBSTRESC is numeric but LBSTRESN is not populated or not equal to LBSTRESC.", "executability": "fully executable", "dataset": "lb.xpt", "USUBJID": "CDISC004", "row": 594, "SEQ": 53, "variables": ["LBSTRESC", "LBSTRESN", "LBTESTCD"], "values": ["4.49631", "4.496309999999999", "GLUC"]}, {"core_id": "CORE-000542", "message": "LBSTRESC is numeric but LBSTRESN is not populated or not equal to LBSTRESC.", "executability": "fully executable", "dataset": "lb.xpt", "USUBJID": "CDISC004", "row": 597, "SEQ": 56, "variables": ["LBSTRESC", "LBSTRESN", "LBTESTCD"], "values": ["4.4", "4.399999999999999", "K"]}, {"core_id": "CORE-000542", "message": "LBSTRESC is numeric but LBSTRESN is not populated or not equal to LBSTRESC.", "executability": "fully executable", "dataset": "lb.xpt", "USUBJID": "CDISC004", "row": 609, "SEQ": 68, "variables": ["LBSTRESC", "LBSTRESN", "LBTESTCD"], "values": ["4.9", "4.899999999999999", "RBC"]}, {"core_id": "CORE-000542", "message": "LBSTRESC is numeric but LBSTRESN is not populated or not equal to LBSTRESC.", "executability": "fully executable", "dataset": "lb.xpt", "USUBJID": "CDISC004", "row": 611, "SEQ": 70, "variables": ["LBSTRESC", "LBSTRESN", "LBTESTCD"], "values": ["249.816", "249.81599999999997", "URATE"]}, {"core_id": "CORE-000542", "message": "LBSTRESC is numeric but LBSTRESN is not populated or not equal to LBSTRESC.", "executability": "fully executable", "dataset": "lb.xpt", "USUBJID": "CDISC004", "row": 619, "SEQ": 78, "variables": ["LBSTRESC", "LBSTRESN", "LBTESTCD"], "values": ["8.55", "8.549999999999999", "BILI"]}, {"core_id": "CORE-000542", "message": "LBSTRESC is numeric but LBSTRESN is not populated or not equal to LBSTRESC.", "executability": "fully executable", "dataset": "lb.xpt", "USUBJID": "CDISC004", "row": 625, "SEQ": 84, "variables": ["LBSTRESC", "LBSTRESN", "LBTESTCD"], "values": ["88.4", "88.39999999999998", "CREAT"]}, {"core_id": "CORE-000542", "message": "LBSTRESC is numeric but LBSTRESN is not populated or not equal to LBSTRESC.", "executability": "fully executable", "dataset": "lb.xpt", "USUBJID": "CDISC004", "row": 630, "SEQ": 89, "variables": ["LBSTRESC", "LBSTRESN", "LBTESTCD"], "values": ["8.56428", "8.564279999999998", "HGB"]}, {"core_id": "CORE-000542", "message": "LBSTRESC is numeric but LBSTRESN is not populated or not equal to LBSTRESC.", "executability": "fully executable", "dataset": "lb.xpt", "USUBJID": "CDISC004", "row": 631, "SEQ": 90, "variables": ["LBSTRESC", "LBSTRESN", "LBTESTCD"], "values": ["4.7", "4.699999999999999", "K"]}, {"core_id": "CORE-000542", "message": "LBSTRESC is numeric but LBSTRESN is not populated or not equal to LBSTRESC.", "executability": "fully executable", "dataset": "lb.xpt", "USUBJID": "CDISC004", "row": 655, "SEQ": 114, "variables": ["LBSTRESC", "LBSTRESN", "LBTESTCD"], "values": ["79.56", "79.55999999999999", "CREAT"]}, {"core_id": "CORE-000542", "message": "LBSTRESC is numeric but LBSTRESN is not populated or not equal to LBSTRESC.", "executability": "fully executable", "dataset": "lb.xpt", "USUBJID": "CDISC004", "row": 661, "SEQ": 120, "variables": ["LBSTRESC", "LBSTRESN", "LBTESTCD"], "values": ["4.4", "4.399999999999999", "K"]}, {"core_id": "CORE-000542", "message": "LBSTRESC is numeric but LBSTRESN is not populated or not equal to LBSTRESC.", "executability": "fully executable", "dataset": "lb.xpt", "USUBJID": "CDISC004", "row": 673, "SEQ": 132, "variables": ["LBSTRESC", "LBSTRESN", "LBTESTCD"], "values": ["7.2", "7.199999999999999", "WBC"]}, {"core_id": "CORE-000542", "message": "LBSTRESC is numeric but LBSTRESN is not populated or not equal to LBSTRESC.", "executability": "fully executable", "dataset": "lb.xpt", "USUBJID": "CDISC004", "row": 685, "SEQ": 144, "variables": ["LBSTRESC", "LBSTRESN", "LBTESTCD"], "values": ["79.56", "79.55999999999999", "CREAT"]}, {"core_id": "CORE-000542", "message": "LBSTRESC is numeric but LBSTRESN is not populated or not equal to LBSTRESC.", "executability": "fully executable", "dataset": "lb.xpt", "USUBJID": "CDISC004", "row": 690, "SEQ": 149, "variables": ["LBSTRESC", "LBSTRESN", "LBTESTCD"], "values": ["8.25398", "8.253979999999999", "HGB"]}, {"core_id": "CORE-000542", "message": "LBSTRESC is numeric but LBSTRESN is not populated or not equal to LBSTRESC.", "executability": "fully executable", "dataset": "lb.xpt", "USUBJID": "CDISC004", "row": 709, "SEQ": 168, "variables": ["LBSTRESC", "LBSTRESN", "LBTESTCD"], "values": ["8.55", "8.549999999999999", "BILI"]}, {"core_id": "CORE-000542", "message": "LBSTRESC is numeric but LBSTRESN is not populated or not equal to LBSTRESC.", "executability": "fully executable", "dataset": "lb.xpt", "USUBJID": "CDISC004", "row": 712, "SEQ": 171, "variables": ["LBSTRESC", "LBSTRESN", "LBTESTCD"], "values": ["5.3013", "5.301299999999999", "CHOL"]}, {"core_id": "CORE-000542", "message": "LBSTRESC is numeric but LBSTRESN is not populated or not equal to LBSTRESC.", "executability": "fully executable", "dataset": "lb.xpt", "USUBJID": "CDISC004", "row": 719, "SEQ": 178, "variables": ["LBSTRESC", "LBSTRESN", "LBTESTCD"], "values": ["6.49467", "6.494669999999999", "GLUC"]}, {"core_id": "CORE-000542", "message": "LBSTRESC is numeric but LBSTRESN is not populated or not equal to LBSTRESC.", "executability": "fully executable", "dataset": "lb.xpt", "USUBJID": "CDISC004", "row": 721, "SEQ": 180, "variables": ["LBSTRESC", "LBSTRESN", "LBTESTCD"], "values": ["8.75046", "8.750459999999999", "HGB"]}, {"core_id": "CORE-000542", "message": "LBSTRESC is numeric but LBSTRESN is not populated or not equal to LBSTRESC.", "executability": "fully executable", "dataset": "lb.xpt", "USUBJID": "CDISC004", "row": 734, "SEQ": 193, "variables": ["LBSTRESC", "LBSTRESN", "LBTESTCD"], "values": ["4.9", "4.899999999999999", "RBC"]}, {"core_id": "CORE-000542", "message": "LBSTRESC is numeric but LBSTRESN is not populated or not equal to LBSTRESC.", "executability": "fully executable", "dataset": "lb.xpt", "USUBJID": "CDISC004", "row": 744, "SEQ": 203, "variables": ["LBSTRESC", "LBSTRESN", "LBTESTCD"], "values": ["8.55", "8.549999999999999", "BILI"]}, {"core_id": "CORE-000542", "message": "LBSTRESC is numeric but LBSTRESN is not populated or not equal to LBSTRESC.", "executability": "fully executable", "dataset": "lb.xpt", "USUBJID": "CDISC004", "row": 745, "SEQ": 204, "variables": ["LBSTRESC", "LBSTRESN", "LBTESTCD"], "values": ["4.998", "4.997999999999999", "UREAN"]}, {"core_id": "CORE-000542", "message": "LBSTRESC is numeric but LBSTRESN is not populated or not equal to LBSTRESC.", "executability": "fully executable", "dataset": "lb.xpt", "USUBJID": "CDISC004", "row": 750, "SEQ": 209, "variables": ["LBSTRESC", "LBSTRESN", "LBTESTCD"], "values": ["88.4", "88.39999999999998", "CREAT"]}, {"core_id": "CORE-000542", "message": "LBSTRESC is numeric but LBSTRESN is not populated or not equal to LBSTRESC.", "executability": "fully executable", "dataset": "lb.xpt", "USUBJID": "CDISC004", "row": 755, "SEQ": 214, "variables": ["LBSTRESC", "LBSTRESN", "LBTESTCD"], "values": ["8.56428", "8.564279999999998", "HGB"]}, {"core_id": "CORE-000542", "message": "LBSTRESC is numeric but LBSTRESN is not populated or not equal to LBSTRESC.", "executability": "fully executable", "dataset": "lb.xpt", "USUBJID": "CDISC004", "row": 756, "SEQ": 215, "variables": ["LBSTRESC", "LBSTRESN", "LBTESTCD"], "values": ["4.4", "4.399999999999999", "K"]}, {"core_id": "CORE-000542", "message": "LBSTRESC is numeric but LBSTRESN is not populated or not equal to LBSTRESC.", "executability": "fully executable", "dataset": "lb.xpt", "USUBJID": "CDISC004", "row": 780, "SEQ": 239, "variables": ["LBSTRESC", "LBSTRESN", "LBTESTCD"], "values": ["88.4", "88.39999999999998", "CREAT"]}, {"core_id": "CORE-000542", "message": "LBSTRESC is numeric but LBSTRESN is not populated or not equal to LBSTRESC.", "executability": "fully executable", "dataset": "lb.xpt", "USUBJID": "CDISC004", "row": 783, "SEQ": 242, "variables": ["LBSTRESC", "LBSTRESN", "LBTESTCD"], "values": ["5.38447", "5.384469999999999", "GLUC"]}, {"core_id": "CORE-000542", "message": "LBSTRESC is numeric but LBSTRESN is not populated or not equal to LBSTRESC.", "executability": "fully executable", "dataset": "lb.xpt", "USUBJID": "CDISC004", "row": 785, "SEQ": 244, "variables": ["LBSTRESC", "LBSTRESN", "LBTESTCD"], "values": ["8.93664", "8.936639999999999", "HGB"]}, {"core_id": "CORE-000542", "message": "LBSTRESC is numeric but LBSTRESN is not populated or not equal to LBSTRESC.", "executability": "fully executable", "dataset": "lb.xpt", "USUBJID": "CDISC004", "row": 796, "SEQ": 255, "variables": ["LBSTRESC", "LBSTRESN", "LBTESTCD"], "values": ["5.2", "5.199999999999999", "RBC"]}, {"core_id": "CORE-000542", "message": "LBSTRESC is numeric but LBSTRESN is not populated or not equal to LBSTRESC.", "executability": "fully executable", "dataset": "lb.xpt", "USUBJID": "CDISC004", "row": 804, "SEQ": 263, "variables": ["LBSTRESC", "LBSTRESN", "LBTESTCD"], "values": ["8.55", "8.549999999999999", "BILI"]}, {"core_id": "CORE-000542", "message": "LBSTRESC is numeric but LBSTRESN is not populated or not equal to LBSTRESC.", "executability": "fully executable", "dataset": "lb.xpt", "USUBJID": "CDISC004", "row": 811, "SEQ": 270, "variables": ["LBSTRESC", "LBSTRESN", "LBTESTCD"], "values": ["88.4", "88.39999999999998", "CREAT"]}, {"core_id": "CORE-000542", "message": "LBSTRESC is numeric but LBSTRESN is not populated or not equal to LBSTRESC.", "executability": "fully executable", "dataset": "lb.xpt", "USUBJID": "CDISC004", "row": 816, "SEQ": 275, "variables": ["LBSTRESC", "LBSTRESN", "LBTESTCD"], "values": ["8.56428", "8.564279999999998", "HGB"]}, {"core_id": "CORE-000542", "message": "LBSTRESC is numeric but LBSTRESN is not populated or not equal to LBSTRESC.", "executability": "fully executable", "dataset": "lb.xpt", "USUBJID": "CDISC004", "row": 817, "SEQ": 276, "variables": ["LBSTRESC", "LBSTRESN", "LBTESTCD"], "values": ["4.9", "4.899999999999999", "K"]}, {"core_id": "CORE-000542", "message": "LBSTRESC is numeric but LBSTRESN is not populated or not equal to LBSTRESC.", "executability": "fully executable", "dataset": "lb.xpt", "USUBJID": "CDISC005", "row": 839, "SEQ": 6, "variables": ["LBSTRESC", "LBSTRESN", "LBTESTCD"], "values": ["8.55", "8.549999999999999", "BILI"]}, {"core_id": "CORE-000542", "message": "LBSTRESC is numeric but LBSTRESN is not populated or not equal to LBSTRESC.", "executability": "fully executable", "dataset": "lb.xpt", "USUBJID": "CDISC005", "row": 842, "SEQ": 9, "variables": ["LBSTRESC", "LBSTRESN", "LBTESTCD"], "values": ["5.50818", "5.508179999999999", "CHOL"]}, {"core_id": "CORE-000542", "message": "LBSTRESC is numeric but LBSTRESN is not populated or not equal to LBSTRESC.", "executability": "fully executable", "dataset": "lb.xpt", "USUBJID": "CDISC005", "row": 846, "SEQ": 13, "variables": ["LBSTRESC", "LBSTRESN", "LBTESTCD"], "values": ["79.56", "79.55999999999999", "CREAT"]}, {"core_id": "CORE-000542", "message": "LBSTRESC is numeric but LBSTRESN is not populated or not equal to LBSTRESC.", "executability": "fully executable", "dataset": "lb.xpt", "USUBJID": "CDISC005", "row": 876, "SEQ": 43, "variables": ["LBSTRESC", "LBSTRESN", "LBTESTCD"], "values": ["8.55", "8.549999999999999", "BILI"]}, {"core_id": "CORE-000542", "message": "LBSTRESC is numeric but LBSTRESN is not populated or not equal to LBSTRESC.", "executability": "fully executable", "dataset": "lb.xpt", "USUBJID": "CDISC005", "row": 883, "SEQ": 50, "variables": ["LBSTRESC", "LBSTRESN", "LBTESTCD"], "values": ["79.56", "79.55999999999999", "CREAT"]}, {"core_id": "CORE-000542", "message": "LBSTRESC is numeric but LBSTRESN is not populated or not equal to LBSTRESC.", "executability": "fully executable", "dataset": "lb.xpt", "USUBJID": "CDISC005", "row": 901, "SEQ": 68, "variables": ["LBSTRESC", "LBSTRESN", "LBTESTCD"], "values": ["4.4", "4.399999999999999", "RBC"]}, {"core_id": "CORE-000542", "message": "LBSTRESC is numeric but LBSTRESN is not populated or not equal to LBSTRESC.", "executability": "fully executable", "dataset": "lb.xpt", "USUBJID": "CDISC005", "row": 917, "SEQ": 84, "variables": ["LBSTRESC", "LBSTRESN", "LBTESTCD"], "values": ["79.56", "79.55999999999999", "CREAT"]}, {"core_id": "CORE-000542", "message": "LBSTRESC is numeric but LBSTRESN is not populated or not equal to LBSTRESC.", "executability": "fully executable", "dataset": "lb.xpt", "USUBJID": "CDISC005", "row": 923, "SEQ": 90, "variables": ["LBSTRESC", "LBSTRESN", "LBTESTCD"], "values": ["4.4", "4.399999999999999", "K"]}, {"core_id": "CORE-000542", "message": "LBSTRESC is numeric but LBSTRESN is not populated or not equal to LBSTRESC.", "executability": "fully executable", "dataset": "lb.xpt", "USUBJID": "CDISC005", "row": 935, "SEQ": 102, "variables": ["LBSTRESC", "LBSTRESN", "LBTESTCD"], "values": ["5.28", "5.279999999999999", "WBC"]}, {"core_id": "CORE-000542", "message": "LBSTRESC is numeric but LBSTRESN is not populated or not equal to LBSTRESC.", "executability": "fully executable", "dataset": "lb.xpt", "USUBJID": "CDISC005", "row": 941, "SEQ": 108, "variables": ["LBSTRESC", "LBSTRESN", "LBTESTCD"], "values": ["8.55", "8.549999999999999", "BILI"]}, {"core_id": "CORE-000542", "message": "LBSTRESC is numeric but LBSTRESN is not populated or not equal to LBSTRESC.", "executability": "fully executable", "dataset": "lb.xpt", "USUBJID": "CDISC005", "row": 947, "SEQ": 114, "variables": ["LBSTRESC", "LBSTRESN", "LBTESTCD"], "values": ["79.56", "79.55999999999999", "CREAT"]}, {"core_id": "CORE-000542", "message": "LBSTRESC is numeric but LBSTRESN is not populated or not equal to LBSTRESC.", "executability": "fully executable", "dataset": "lb.xpt", "USUBJID": "CDISC005", "row": 977, "SEQ": 144, "variables": ["LBSTRESC", "LBSTRESN", "LBTESTCD"], "values": ["79.56", "79.55999999999999", "CREAT"]}, {"core_id": "CORE-000542", "message": "LBSTRESC is numeric but LBSTRESN is not populated or not equal to LBSTRESC.", "executability": "fully executable", "dataset": "lb.xpt", "USUBJID": "CDISC005", "row": 980, "SEQ": 147, "variables": ["LBSTRESC", "LBSTRESN", "LBTESTCD"], "values": ["4.60733", "4.607329999999999", "GLUC"]}, {"core_id": "CORE-000542", "message": "LBSTRESC is numeric but LBSTRESN is not populated or not equal to LBSTRESC.", "executability": "fully executable", "dataset": "lb.xpt", "USUBJID": "CDISC005", "row": 993, "SEQ": 160, "variables": ["LBSTRESC", "LBSTRESN", "LBTESTCD"], "values": ["4.4", "4.399999999999999", "RBC"]}, {"core_id": "CORE-000542", "message": "LBSTRESC is numeric but LBSTRESN is not populated or not equal to LBSTRESC.", "executability": "fully executable", "dataset": "lb.xpt", "USUBJID": "CDISC005", "row": 1004, "SEQ": 171, "variables": ["LBSTRESC", "LBSTRESN", "LBTESTCD"], "values": ["4.9134", "4.913399999999999", "CHOL"]}, {"core_id": "CORE-000542", "message": "LBSTRESC is numeric but LBSTRESN is not populated or not equal to LBSTRESC.", "executability": "fully executable", "dataset": "lb.xpt", "USUBJID": "CDISC005", "row": 1008, "SEQ": 175, "variables": ["LBSTRESC", "LBSTRESN", "LBTESTCD"], "values": ["88.4", "88.39999999999998", "CREAT"]}, {"core_id": "CORE-000542", "message": "LBSTRESC is numeric but LBSTRESN is not populated or not equal to LBSTRESC.", "executability": "fully executable", "dataset": "lb.xpt", "USUBJID": "CDISC005", "row": 1026, "SEQ": 193, "variables": ["LBSTRESC", "LBSTRESN", "LBTESTCD"], "values": ["4.2", "4.199999999999999", "RBC"]}, {"core_id": "CORE-000542", "message": "LBSTRESC is numeric but LBSTRESN is not populated or not equal to LBSTRESC.", "executability": "fully executable", "dataset": "lb.xpt", "USUBJID": "CDISC005", "row": 1036, "SEQ": 203, "variables": ["LBSTRESC", "LBSTRESN", "LBTESTCD"], "values": ["8.55", "8.549999999999999", "BILI"]}, {"core_id": "CORE-000542", "message": "LBSTRESC is numeric but LBSTRESN is not populated or not equal to LBSTRESC.", "executability": "fully executable", "dataset": "lb.xpt", "USUBJID": "CDISC005", "row": 1039, "SEQ": 206, "variables": ["LBSTRESC", "LBSTRESN", "LBTESTCD"], "values": ["4.80996", "4.809959999999999", "CHOL"]}, {"core_id": "CORE-000542", "message": "LBSTRESC is numeric but LBSTRESN is not populated or not equal to LBSTRESC.", "executability": "fully executable", "dataset": "lb.xpt", "USUBJID": "CDISC005", "row": 1042, "SEQ": 209, "variables": ["LBSTRESC", "LBSTRESN", "LBTESTCD"], "values": ["79.56", "79.55999999999999", "CREAT"]}, {"core_id": "CORE-000542", "message": "LBSTRESC is numeric but LBSTRESN is not populated or not equal to LBSTRESC.", "executability": "fully executable", "dataset": "lb.xpt", "USUBJID": "CDISC005", "row": 1048, "SEQ": 215, "variables": ["LBSTRESC", "LBSTRESN", "LBTESTCD"], "values": ["4.2", "4.199999999999999", "K"]}, {"core_id": "CORE-000542", "message": "LBSTRESC is numeric but LBSTRESN is not populated or not equal to LBSTRESC.", "executability": "fully executable", "dataset": "lb.xpt", "USUBJID": "CDISC005", "row": 1058, "SEQ": 225, "variables": ["LBSTRESC", "LBSTRESN", "LBTESTCD"], "values": ["4.4", "4.399999999999999", "RBC"]}, {"core_id": "CORE-000542", "message": "LBSTRESC is numeric but LBSTRESN is not populated or not equal to LBSTRESC.", "executability": "fully executable", "dataset": "lb.xpt", "USUBJID": "CDISC005", "row": 1060, "SEQ": 227, "variables": ["LBSTRESC", "LBSTRESN", "LBTESTCD"], "values": ["5.07", "5.069999999999999", "WBC"]}, {"core_id": "CORE-000542", "message": "LBSTRESC is numeric but LBSTRESN is not populated or not equal to LBSTRESC.", "executability": "fully executable", "dataset": "lb.xpt", "USUBJID": "CDISC005", "row": 1069, "SEQ": 236, "variables": ["LBSTRESC", "LBSTRESN", "LBTESTCD"], "values": ["5.22372", "5.223719999999999", "CHOL"]}, {"core_id": "CORE-000542", "message": "LBSTRESC is numeric but LBSTRESN is not populated or not equal to LBSTRESC.", "executability": "fully executable", "dataset": "lb.xpt", "USUBJID": "CDISC005", "row": 1072, "SEQ": 239, "variables": ["LBSTRESC", "LBSTRESN", "LBTESTCD"], "values": ["88.4", "88.39999999999998", "CREAT"]}, {"core_id": "CORE-000542", "message": "LBSTRESC is numeric but LBSTRESN is not populated or not equal to LBSTRESC.", "executability": "fully executable", "dataset": "lb.xpt", "USUBJID": "CDISC005", "row": 1090, "SEQ": 257, "variables": ["LBSTRESC", "LBSTRESN", "LBTESTCD"], "values": ["5.91", "5.909999999999999", "WBC"]}, {"core_id": "CORE-000542", "message": "LBSTRESC is numeric but LBSTRESN is not populated or not equal to LBSTRESC.", "executability": "fully executable", "dataset": "lb.xpt", "USUBJID": "CDISC005", "row": 1096, "SEQ": 263, "variables": ["LBSTRESC", "LBSTRESN", "LBTESTCD"], "values": ["8.55", "8.549999999999999", "BILI"]}, {"core_id": "CORE-000542", "message": "LBSTRESC is numeric but LBSTRESN is not populated or not equal to LBSTRESC.", "executability": "fully executable", "dataset": "lb.xpt", "USUBJID": "CDISC005", "row": 1103, "SEQ": 270, "variables": ["LBSTRESC", "LBSTRESN", "LBTESTCD"], "values": ["88.4", "88.39999999999998", "CREAT"]}, {"core_id": "CORE-000542", "message": "LBSTRESC is numeric but LBSTRESN is not populated or not equal to LBSTRESC.", "executability": "fully executable", "dataset": "lb.xpt", "USUBJID": "CDISC005", "row": 1109, "SEQ": 276, "variables": ["LBSTRESC", "LBSTRESN", "LBTESTCD"], "values": ["4.4", "4.399999999999999", "K"]}, {"core_id": "CORE-000542", "message": "LBSTRESC is numeric but LBSTRESN is not populated or not equal to LBSTRESC.", "executability": "fully executable", "dataset": "lb.xpt", "USUBJID": "CDISC005", "row": 1121, "SEQ": 288, "variables": ["LBSTRESC", "LBSTRESN", "LBTESTCD"], "values": ["4.2", "4.199999999999999", "RBC"]}, {"core_id": "CORE-000542", "message": "LBSTRESC is numeric but LBSTRESN is not populated or not equal to LBSTRESC.", "executability": "fully executable", "dataset": "lb.xpt", "USUBJID": "CDISC005", "row": 1125, "SEQ": 292, "variables": ["LBSTRESC", "LBSTRESN", "LBTESTCD"], "values": ["5.53", "5.529999999999999", "WBC"]}, {"core_id": "CORE-000542", "message": "LBSTRESC is numeric but LBSTRESN is not populated or not equal to LBSTRESC.", "executability": "fully executable", "dataset": "lb.xpt", "USUBJID": "CDISC005", "row": 1131, "SEQ": 298, "variables": ["LBSTRESC", "LBSTRESN", "LBTESTCD"], "values": ["8.55", "8.549999999999999", "BILI"]}, {"core_id": "CORE-000542", "message": "LBSTRESC is numeric but LBSTRESN is not populated or not equal to LBSTRESC.", "executability": "fully executable", "dataset": "lb.xpt", "USUBJID": "CDISC005", "row": 1137, "SEQ": 304, "variables": ["LBSTRESC", "LBSTRESN", "LBTESTCD"], "values": ["79.56", "79.55999999999999", "CREAT"]}, {"core_id": "CORE-000542", "message": "LBSTRESC is numeric but LBSTRESN is not populated or not equal to LBSTRESC.", "executability": "fully executable", "dataset": "lb.xpt", "USUBJID": "CDISC005", "row": 1155, "SEQ": 322, "variables": ["LBSTRESC", "LBSTRESN", "LBTESTCD"], "values": ["5.57", "5.569999999999999", "WBC"]}, {"core_id": "CORE-000542", "message": "LBSTRESC is numeric but LBSTRESN is not populated or not equal to LBSTRESC.", "executability": "fully executable", "dataset": "lb.xpt", "USUBJID": "CDISC006", "row": 1161, "SEQ": 6, "variables": ["LBSTRESC", "LBSTRESN", "LBTESTCD"], "values": ["8.55", "8.549999999999999", "BILI"]}, {"core_id": "CORE-000542", "message": "LBSTRESC is numeric but LBSTRESN is not populated or not equal to LBSTRESC.", "executability": "fully executable", "dataset": "lb.xpt", "USUBJID": "CDISC006", "row": 1186, "SEQ": 31, "variables": ["LBSTRESC", "LBSTRESN", "LBTESTCD"], "values": ["4.2", "4.199999999999999", "RBC"]}, {"core_id": "CORE-000542", "message": "LBSTRESC is numeric but LBSTRESN is not populated or not equal to LBSTRESC.", "executability": "fully executable", "dataset": "lb.xpt", "USUBJID": "CDISC006", "row": 1201, "SEQ": 46, "variables": ["LBSTRESC", "LBSTRESN", "LBTESTCD"], "values": ["5.8185", "5.818499999999999", "CHOL"]}, {"core_id": "CORE-000542", "message": "LBSTRESC is numeric but LBSTRESN is not populated or not equal to LBSTRESC.", "executability": "fully executable", "dataset": "lb.xpt", "USUBJID": "CDISC006", "row": 1205, "SEQ": 50, "variables": ["LBSTRESC", "LBSTRESN", "LBTESTCD"], "values": ["88.4", "88.39999999999998", "CREAT"]}, {"core_id": "CORE-000542", "message": "LBSTRESC is numeric but LBSTRESN is not populated or not equal to LBSTRESC.", "executability": "fully executable", "dataset": "lb.xpt", "USUBJID": "CDISC006", "row": 1210, "SEQ": 55, "variables": ["LBSTRESC", "LBSTRESN", "LBTESTCD"], "values": ["8.44016", "8.440159999999999", "HGB"]}, {"core_id": "CORE-000542", "message": "LBSTRESC is numeric but LBSTRESN is not populated or not equal to LBSTRESC.", "executability": "fully executable", "dataset": "lb.xpt", "USUBJID": "CDISC006", "row": 1223, "SEQ": 68, "variables": ["LBSTRESC", "LBSTRESN", "LBTESTCD"], "values": ["4.4", "4.399999999999999", "RBC"]}, {"core_id": "CORE-000542", "message": "LBSTRESC is numeric but LBSTRESN is not populated or not equal to LBSTRESC.", "executability": "fully executable", "dataset": "lb.xpt", "USUBJID": "CDISC006", "row": 1227, "SEQ": 72, "variables": ["LBSTRESC", "LBSTRESN", "LBTESTCD"], "values": ["5.99", "5.989999999999999", "WBC"]}, {"core_id": "CORE-000542", "message": "LBSTRESC is numeric but LBSTRESN is not populated or not equal to LBSTRESC.", "executability": "fully executable", "dataset": "lb.xpt", "USUBJID": "CDISC006", "row": 1234, "SEQ": 79, "variables": ["LBSTRESC", "LBSTRESN", "LBTESTCD"], "values": ["6.426", "6.425999999999999", "UREAN"]}, {"core_id": "CORE-000542", "message": "LBSTRESC is numeric but LBSTRESN is not populated or not equal to LBSTRESC.", "executability": "fully executable", "dataset": "lb.xpt", "USUBJID": "CDISC006", "row": 1236, "SEQ": 81, "variables": ["LBSTRESC", "LBSTRESN", "LBTESTCD"], "values": ["5.32716", "5.327159999999999", "CHOL"]}, {"core_id": "CORE-000542", "message": "LBSTRESC is numeric but LBSTRESN is not populated or not equal to LBSTRESC.", "executability": "fully executable", "dataset": "lb.xpt", "USUBJID": "CDISC006", "row": 1239, "SEQ": 84, "variables": ["LBSTRESC", "LBSTRESN", "LBTESTCD"], "values": ["79.56", "79.55999999999999", "CREAT"]}, {"core_id": "CORE-000542", "message": "LBSTRESC is numeric but LBSTRESN is not populated or not equal to LBSTRESC.", "executability": "fully executable", "dataset": "lb.xpt", "USUBJID": "CDISC006", "row": 1242, "SEQ": 87, "variables": ["LBSTRESC", "LBSTRESN", "LBTESTCD"], "values": ["5.49549", "5.495489999999999", "GLUC"]}, {"core_id": "CORE-000542", "message": "LBSTRESC is numeric but LBSTRESN is not populated or not equal to LBSTRESC.", "executability": "fully executable", "dataset": "lb.xpt", "USUBJID": "CDISC006", "row": 1255, "SEQ": 100, "variables": ["LBSTRESC", "LBSTRESN", "LBTESTCD"], "values": ["4.2", "4.199999999999999", "RBC"]}, {"core_id": "CORE-000542", "message": "LBSTRESC is numeric but LBSTRESN is not populated or not equal to LBSTRESC.", "executability": "fully executable", "dataset": "lb.xpt", "USUBJID": "CDISC006", "row": 1263, "SEQ": 108, "variables": ["LBSTRESC", "LBSTRESN", "LBTESTCD"], "values": ["8.55", "8.549999999999999", "BILI"]}, {"core_id": "CORE-000542", "message": "LBSTRESC is numeric but LBSTRESN is not populated or not equal to LBSTRESC.", "executability": "fully executable", "dataset": "lb.xpt", "USUBJID": "CDISC006", "row": 1270, "SEQ": 115, "variables": ["LBSTRESC", "LBSTRESN", "LBTESTCD"], "values": ["79.56", "79.55999999999999", "CREAT"]}, {"core_id": "CORE-000542", "message": "LBSTRESC is numeric but LBSTRESN is not populated or not equal to LBSTRESC.", "executability": "fully executable", "dataset": "lb.xpt", "USUBJID": "CDISC006", "row": 1273, "SEQ": 118, "variables": ["LBSTRESC", "LBSTRESN", "LBTESTCD"], "values": ["5.49549", "5.495489999999999", "GLUC"]}, {"core_id": "CORE-000542", "message": "LBSTRESC is numeric but LBSTRESN is not populated or not equal to LBSTRESC.", "executability": "fully executable", "dataset": "lb.xpt", "USUBJID": "CDISC006", "row": 1290, "SEQ": 135, "variables": ["LBSTRESC", "LBSTRESN", "LBTESTCD"], "values": ["166.544", "166.54399999999998", "URATE"]}, {"core_id": "CORE-000542", "message": "LBSTRESC is numeric but LBSTRESN is not populated or not equal to LBSTRESC.", "executability": "fully executable", "dataset": "lb.xpt", "USUBJID": "CDISC007", "row": 1301, "SEQ": 9, "variables": ["LBSTRESC", "LBSTRESN", "LBTESTCD"], "values": ["5.61162", "5.611619999999999", "CHOL"]}, {"core_id": "CORE-000542", "message": "LBSTRESC is numeric but LBSTRESN is not populated or not equal to LBSTRESC.", "executability": "fully executable", "dataset": "lb.xpt", "USUBJID": "CDISC007", "row": 1329, "SEQ": 37, "variables": ["LBSTRESC", "LBSTRESN", "LBTESTCD"], "values": ["5.32", "5.319999999999999", "WBC"]}, {"core_id": "CORE-000542", "message": "LBSTRESC is numeric but LBSTRESN is not populated or not equal to LBSTRESC.", "executability": "fully executable", "dataset": "lb.xpt", "USUBJID": "CDISC007", "row": 1336, "SEQ": 44, "variables": ["LBSTRESC", "LBSTRESN", "LBTESTCD"], "values": ["6.426", "6.425999999999999", "UREAN"]}, {"core_id": "CORE-000542", "message": "LBSTRESC is numeric but LBSTRESN is not populated or not equal to LBSTRESC.", "executability": "fully executable", "dataset": "lb.xpt", "USUBJID": "CDISC007", "row": 1342, "SEQ": 50, "variables": ["LBSTRESC", "LBSTRESN", "LBTESTCD"], "values": ["88.4", "88.39999999999998", "CREAT"]}, {"core_id": "CORE-000542", "message": "LBSTRESC is numeric but LBSTRESN is not populated or not equal to LBSTRESC.", "executability": "fully executable", "dataset": "lb.xpt", "USUBJID": "CDISC007", "row": 1345, "SEQ": 53, "variables": ["LBSTRESC", "LBSTRESN", "LBTESTCD"], "values": ["5.551", "5.550999999999999", "GLUC"]}, {"core_id": "CORE-000542", "message": "LBSTRESC is numeric but LBSTRESN is not populated or not equal to LBSTRESC.", "executability": "fully executable", "dataset": "lb.xpt", "USUBJID": "CDISC007", "row": 1348, "SEQ": 56, "variables": ["LBSTRESC", "LBSTRESN", "LBTESTCD"], "values": ["4.2", "4.199999999999999", "K"]}, {"core_id": "CORE-000542", "message": "LBSTRESC is numeric but LBSTRESN is not populated or not equal to LBSTRESC.", "executability": "fully executable", "dataset": "lb.xpt", "USUBJID": "CDISC007", "row": 1371, "SEQ": 79, "variables": ["LBSTRESC", "LBSTRESN", "LBTESTCD"], "values": ["4.998", "4.997999999999999", "UREAN"]}, {"core_id": "CORE-000542", "message": "LBSTRESC is numeric but LBSTRESN is not populated or not equal to LBSTRESC.", "executability": "fully executable", "dataset": "lb.xpt", "USUBJID": "CDISC007", "row": 1381, "SEQ": 89, "variables": ["LBSTRESC", "LBSTRESN", "LBTESTCD"], "values": ["8.56428", "8.564279999999998", "HGB"]}, {"core_id": "CORE-000542", "message": "LBSTRESC is numeric but LBSTRESN is not populated or not equal to LBSTRESC.", "executability": "fully executable", "dataset": "lb.xpt", "USUBJID": "CDISC007", "row": 1394, "SEQ": 102, "variables": ["LBSTRESC", "LBSTRESN", "LBTESTCD"], "values": ["6.49", "6.489999999999999", "WBC"]}, {"core_id": "CORE-000542", "message": "LBSTRESC is numeric but LBSTRESN is not populated or not equal to LBSTRESC.", "executability": "fully executable", "dataset": "lb.xpt", "USUBJID": "CDISC007", "row": 1403, "SEQ": 111, "variables": ["LBSTRESC", "LBSTRESN", "LBTESTCD"], "values": ["5.32716", "5.327159999999999", "CHOL"]}, {"core_id": "CORE-000542", "message": "LBSTRESC is numeric but LBSTRESN is not populated or not equal to LBSTRESC.", "executability": "fully executable", "dataset": "lb.xpt", "USUBJID": "CDISC007", "row": 1412, "SEQ": 120, "variables": ["LBSTRESC", "LBSTRESN", "LBTESTCD"], "values": ["8.44016", "8.440159999999999", "HGB"]}, {"core_id": "CORE-000542", "message": "LBSTRESC is numeric but LBSTRESN is not populated or not equal to LBSTRESC.", "executability": "fully executable", "dataset": "lb.xpt", "USUBJID": "CDISC007", "row": 1425, "SEQ": 133, "variables": ["LBSTRESC", "LBSTRESN", "LBTESTCD"], "values": ["4.9", "4.899999999999999", "RBC"]}, {"core_id": "CORE-000542", "message": "LBSTRESC is numeric but LBSTRESN is not populated or not equal to LBSTRESC.", "executability": "fully executable", "dataset": "lb.xpt", "USUBJID": "CDISC008", "row": 1436, "SEQ": 7, "variables": ["LBSTRESC", "LBSTRESN", "LBTESTCD"], "values": ["6.426", "6.425999999999999", "UREAN"]}, {"core_id": "CORE-000542", "message": "LBSTRESC is numeric but LBSTRESN is not populated or not equal to LBSTRESC.", "executability": "fully executable", "dataset": "lb.xpt", "USUBJID": "CDISC008", "row": 1442, "SEQ": 13, "variables": ["LBSTRESC", "LBSTRESN", "LBTESTCD"], "values": ["88.4", "88.39999999999998", "CREAT"]}, {"core_id": "CORE-000542", "message": "LBSTRESC is numeric but LBSTRESN is not populated or not equal to LBSTRESC.", "executability": "fully executable", "dataset": "lb.xpt", "USUBJID": "CDISC008", "row": 1448, "SEQ": 19, "variables": ["LBSTRESC", "LBSTRESN", "LBTESTCD"], "values": ["4.2", "4.199999999999999", "K"]}, {"core_id": "CORE-000542", "message": "LBSTRESC is numeric but LBSTRESN is not populated or not equal to LBSTRESC.", "executability": "fully executable", "dataset": "lb.xpt", "USUBJID": "CDISC008", "row": 1460, "SEQ": 31, "variables": ["LBSTRESC", "LBSTRESN", "LBTESTCD"], "values": ["5.2", "5.199999999999999", "RBC"]}, {"core_id": "CORE-000542", "message": "LBSTRESC is numeric but LBSTRESN is not populated or not equal to LBSTRESC.", "executability": "fully executable", "dataset": "lb.xpt", "USUBJID": "CDISC008", "row": 1466, "SEQ": 37, "variables": ["LBSTRESC", "LBSTRESN", "LBTESTCD"], "values": ["9.4", "9.399999999999999", "WBC"]}, {"core_id": "CORE-000542", "message": "LBSTRESC is numeric but LBSTRESN is not populated or not equal to LBSTRESC.", "executability": "fully executable", "dataset": "lb.xpt", "USUBJID": "CDISC008", "row": 1486, "SEQ": 57, "variables": ["LBSTRESC", "LBSTRESN", "LBTESTCD"], "values": ["8.55", "8.549999999999999", "BILI"]}, {"core_id": "CORE-000542", "message": "LBSTRESC is numeric but LBSTRESN is not populated or not equal to LBSTRESC.", "executability": "fully executable", "dataset": "lb.xpt", "USUBJID": "CDISC008", "row": 1493, "SEQ": 64, "variables": ["LBSTRESC", "LBSTRESN", "LBTESTCD"], "values": ["79.56", "79.55999999999999", "CREAT"]}, {"core_id": "CORE-000542", "message": "LBSTRESC is numeric but LBSTRESN is not populated or not equal to LBSTRESC.", "executability": "fully executable", "dataset": "lb.xpt", "USUBJID": "CDISC008", "row": 1523, "SEQ": 94, "variables": ["LBSTRESC", "LBSTRESN", "LBTESTCD"], "values": ["6.426", "6.425999999999999", "UREAN"]}, {"core_id": "CORE-000542", "message": "LBSTRESC is numeric but LBSTRESN is not populated or not equal to LBSTRESC.", "executability": "fully executable", "dataset": "lb.xpt", "USUBJID": "CDISC008", "row": 1528, "SEQ": 99, "variables": ["LBSTRESC", "LBSTRESN", "LBTESTCD"], "values": ["88.4", "88.39999999999998", "CREAT"]}, {"core_id": "CORE-000542", "message": "LBSTRESC is numeric but LBSTRESN is not populated or not equal to LBSTRESC.", "executability": "fully executable", "dataset": "lb.xpt", "USUBJID": "CDISC008", "row": 1533, "SEQ": 104, "variables": ["LBSTRESC", "LBSTRESN", "LBTESTCD"], "values": ["9.06076", "9.060759999999998", "HGB"]}, {"core_id": "CORE-000542", "message": "LBSTRESC is numeric but LBSTRESN is not populated or not equal to LBSTRESC.", "executability": "fully executable", "dataset": "lb.xpt", "USUBJID": "CDISC008", "row": 1534, "SEQ": 105, "variables": ["LBSTRESC", "LBSTRESN", "LBTESTCD"], "values": ["4.2", "4.199999999999999", "K"]}, {"core_id": "CORE-000542", "message": "LBSTRESC is numeric but LBSTRESN is not populated or not equal to LBSTRESC.", "executability": "fully executable", "dataset": "lb.xpt", "USUBJID": "CDISC008", "row": 1552, "SEQ": 123, "variables": ["LBSTRESC", "LBSTRESN", "LBTESTCD"], "values": ["8.55", "8.549999999999999", "BILI"]}, {"core_id": "CORE-000542", "message": "LBSTRESC is numeric but LBSTRESN is not populated or not equal to LBSTRESC.", "executability": "fully executable", "dataset": "lb.xpt", "USUBJID": "CDISC008", "row": 1558, "SEQ": 129, "variables": ["LBSTRESC", "LBSTRESN", "LBTESTCD"], "values": ["88.4", "88.39999999999998", "CREAT"]}, {"core_id": "CORE-000542", "message": "LBSTRESC is numeric but LBSTRESN is not populated or not equal to LBSTRESC.", "executability": "fully executable", "dataset": "lb.xpt", "USUBJID": "CDISC008", "row": 1561, "SEQ": 132, "variables": ["LBSTRESC", "LBSTRESN", "LBTESTCD"], "values": ["9.32568", "9.325679999999998", "GLUC"]}, {"core_id": "CORE-000542", "message": "LBSTRESC is numeric but LBSTRESN is not populated or not equal to LBSTRESC.", "executability": "fully executable", "dataset": "lb.xpt", "USUBJID": "CDISC008", "row": 1564, "SEQ": 135, "variables": ["LBSTRESC", "LBSTRESN", "LBTESTCD"], "values": ["4.4", "4.399999999999999", "K"]}, {"core_id": "CORE-000542", "message": "LBSTRESC is numeric but LBSTRESN is not populated or not equal to LBSTRESC.", "executability": "fully executable", "dataset": "lb.xpt", "USUBJID": "CDISC008", "row": 1588, "SEQ": 159, "variables": ["LBSTRESC", "LBSTRESN", "LBTESTCD"], "values": ["88.4", "88.39999999999998", "CREAT"]}, {"core_id": "CORE-000542", "message": "LBSTRESC is numeric but LBSTRESN is not populated or not equal to LBSTRESC.", "executability": "fully executable", "dataset": "lb.xpt", "USUBJID": "CDISC008", "row": 1606, "SEQ": 177, "variables": ["LBSTRESC", "LBSTRESN", "LBTESTCD"], "values": ["7.16", "7.159999999999999", "WBC"]}, {"core_id": "CORE-000542", "message": "LBSTRESC is numeric but LBSTRESN is not populated or not equal to LBSTRESC.", "executability": "fully executable", "dataset": "lb.xpt", "USUBJID": "CDISC008", "row": 1612, "SEQ": 183, "variables": ["LBSTRESC", "LBSTRESN", "LBTESTCD"], "values": ["8.55", "8.549999999999999", "BILI"]}, {"core_id": "CORE-000542", "message": "LBSTRESC is numeric but LBSTRESN is not populated or not equal to LBSTRESC.", "executability": "fully executable", "dataset": "lb.xpt", "USUBJID": "CDISC008", "row": 1650, "SEQ": 221, "variables": ["LBSTRESC", "LBSTRESN", "LBTESTCD"], "values": ["4.49964", "4.499639999999999", "CHOL"]}, {"core_id": "CORE-000542", "message": "LBSTRESC is numeric but LBSTRESN is not populated or not equal to LBSTRESC.", "executability": "fully executable", "dataset": "lb.xpt", "USUBJID": "CDISC008", "row": 1653, "SEQ": 224, "variables": ["LBSTRESC", "LBSTRESN", "LBTESTCD"], "values": ["88.4", "88.39999999999998", "CREAT"]}, {"core_id": "CORE-000542", "message": "LBSTRESC is numeric but LBSTRESN is not populated or not equal to LBSTRESC.", "executability": "fully executable", "dataset": "lb.xpt", "USUBJID": "CDISC008", "row": 1656, "SEQ": 227, "variables": ["LBSTRESC", "LBSTRESN", "LBTESTCD"], "values": ["9.10364", "9.103639999999999", "GLUC"]}, {"core_id": "CORE-000542", "message": "LBSTRESC is numeric but LBSTRESN is not populated or not equal to LBSTRESC.", "executability": "fully executable", "dataset": "lb.xpt", "USUBJID": "CDISC008", "row": 1669, "SEQ": 240, "variables": ["LBSTRESC", "LBSTRESN", "LBTESTCD"], "values": ["5.2", "5.199999999999999", "RBC"]}, {"core_id": "CORE-000542", "message": "LBSTRESC is numeric but LBSTRESN is not populated or not equal to LBSTRESC.", "executability": "fully executable", "dataset": "lb.xpt", "USUBJID": "CDISC008", "row": 1677, "SEQ": 248, "variables": ["LBSTRESC", "LBSTRESN", "LBTESTCD"], "values": ["8.55", "8.549999999999999", "BILI"]}, {"core_id": "CORE-000542", "message": "LBSTRESC is numeric but LBSTRESN is not populated or not equal to LBSTRESC.", "executability": "fully executable", "dataset": "lb.xpt", "USUBJID": "CDISC008", "row": 1680, "SEQ": 251, "variables": ["LBSTRESC", "LBSTRESN", "LBTESTCD"], "values": ["4.18932", "4.189319999999999", "CHOL"]}, {"core_id": "CORE-000542", "message": "LBSTRESC is numeric but LBSTRESN is not populated or not equal to LBSTRESC.", "executability": "fully executable", "dataset": "lb.xpt", "USUBJID": "CDISC008", "row": 1683, "SEQ": 254, "variables": ["LBSTRESC", "LBSTRESN", "LBTESTCD"], "values": ["88.4", "88.39999999999998", "CREAT"]}, {"core_id": "CORE-000542", "message": "LBSTRESC is numeric but LBSTRESN is not populated or not equal to LBSTRESC.", "executability": "fully executable", "dataset": "lb.xpt", "USUBJID": "CDISC008", "row": 1688, "SEQ": 259, "variables": ["LBSTRESC", "LBSTRESN", "LBTESTCD"], "values": ["9.24694", "9.246939999999999", "HGB"]}, {"core_id": "CORE-000542", "message": "LBSTRESC is numeric but LBSTRESN is not populated or not equal to LBSTRESC.", "executability": "fully executable", "dataset": "lb.xpt", "USUBJID": "CDISC008", "row": 1699, "SEQ": 270, "variables": ["LBSTRESC", "LBSTRESN", "LBTESTCD"], "values": ["4.9", "4.899999999999999", "RBC"]}, {"core_id": "CORE-000542", "message": "LBSTRESC is numeric but LBSTRESN is not populated or not equal to LBSTRESC.", "executability": "fully executable", "dataset": "lb.xpt", "USUBJID": "CDISC008", "row": 1703, "SEQ": 274, "variables": ["LBSTRESC", "LBSTRESN", "LBTESTCD"], "values": ["12.41", "12.409999999999998", "WBC"]}, {"core_id": "CORE-000542", "message": "LBSTRESC is numeric but LBSTRESN is not populated or not equal to LBSTRESC.", "executability": "fully executable", "dataset": "lb.xpt", "USUBJID": "CDISC009", "row": 1709, "SEQ": 6, "variables": ["LBSTRESC", "LBSTRESN", "LBTESTCD"], "values": ["8.55", "8.549999999999999", "BILI"]}, {"core_id": "CORE-000542", "message": "LBSTRESC is numeric but LBSTRESN is not populated or not equal to LBSTRESC.", "executability": "fully executable", "dataset": "lb.xpt", "USUBJID": "CDISC009", "row": 1721, "SEQ": 18, "variables": ["LBSTRESC", "LBSTRESN", "LBTESTCD"], "values": ["8.44016", "8.440159999999999", "HGB"]}, {"core_id": "CORE-000542", "message": "LBSTRESC is numeric but LBSTRESN is not populated or not equal to LBSTRESC.", "executability": "fully executable", "dataset": "lb.xpt", "USUBJID": "CDISC009", "row": 1746, "SEQ": 43, "variables": ["LBSTRESC", "LBSTRESN", "LBTESTCD"], "values": ["8.55", "8.549999999999999", "BILI"]}, {"core_id": "CORE-000542", "message": "LBSTRESC is numeric but LBSTRESN is not populated or not equal to LBSTRESC.", "executability": "fully executable", "dataset": "lb.xpt", "USUBJID": "CDISC009", "row": 1756, "SEQ": 53, "variables": ["LBSTRESC", "LBSTRESN", "LBTESTCD"], "values": ["5.49549", "5.495489999999999", "GLUC"]}, {"core_id": "CORE-000542", "message": "LBSTRESC is numeric but LBSTRESN is not populated or not equal to LBSTRESC.", "executability": "fully executable", "dataset": "lb.xpt", "USUBJID": "CDISC009", "row": 1775, "SEQ": 72, "variables": ["LBSTRESC", "LBSTRESN", "LBTESTCD"], "values": ["6.36", "6.359999999999999", "WBC"]}, {"core_id": "CORE-000542", "message": "LBSTRESC is numeric but LBSTRESN is not populated or not equal to LBSTRESC.", "executability": "fully executable", "dataset": "lb.xpt", "USUBJID": "CDISC009", "row": 1781, "SEQ": 78, "variables": ["LBSTRESC", "LBSTRESN", "LBTESTCD"], "values": ["8.55", "8.549999999999999", "BILI"]}, {"core_id": "CORE-000542", "message": "LBSTRESC is numeric but LBSTRESN is not populated or not equal to LBSTRESC.", "executability": "fully executable", "dataset": "lb.xpt", "USUBJID": "CDISC009", "row": 1784, "SEQ": 81, "variables": ["LBSTRESC", "LBSTRESN", "LBTESTCD"], "values": ["6.12882", "6.128819999999999", "CHOL"]}, {"core_id": "CORE-000542", "message": "LBSTRESC is numeric but LBSTRESN is not populated or not equal to LBSTRESC.", "executability": "fully executable", "dataset": "lb.xpt", "USUBJID": "CDISC009", "row": 1787, "SEQ": 84, "variables": ["LBSTRESC", "LBSTRESN", "LBTESTCD"], "values": ["79.56", "79.55999999999999", "CREAT"]}, {"core_id": "CORE-000542", "message": "LBSTRESC is numeric but LBSTRESN is not populated or not equal to LBSTRESC.", "executability": "fully executable", "dataset": "lb.xpt", "USUBJID": "CDISC009", "row": 1790, "SEQ": 87, "variables": ["LBSTRESC", "LBSTRESN", "LBTESTCD"], "values": ["4.60733", "4.607329999999999", "GLUC"]}, {"core_id": "CORE-000542", "message": "LBSTRESC is numeric but LBSTRESN is not populated or not equal to LBSTRESC.", "executability": "fully executable", "dataset": "lb.xpt", "USUBJID": "CDISC009", "row": 1792, "SEQ": 89, "variables": ["LBSTRESC", "LBSTRESN", "LBTESTCD"], "values": ["8.75046", "8.750459999999999", "HGB"]}, {"core_id": "CORE-000542", "message": "LBSTRESC is numeric but LBSTRESN is not populated or not equal to LBSTRESC.", "executability": "fully executable", "dataset": "lb.xpt", "USUBJID": "CDISC009", "row": 1803, "SEQ": 100, "variables": ["LBSTRESC", "LBSTRESN", "LBTESTCD"], "values": ["4.7", "4.699999999999999", "RBC"]}, {"core_id": "CORE-000542", "message": "LBSTRESC is numeric but LBSTRESN is not populated or not equal to LBSTRESC.", "executability": "fully executable", "dataset": "lb.xpt", "USUBJID": "CDISC009", "row": 1805, "SEQ": 102, "variables": ["LBSTRESC", "LBSTRESN", "LBTESTCD"], "values": ["4.99", "4.989999999999999", "WBC"]}, {"core_id": "CORE-000542", "message": "LBSTRESC is numeric but LBSTRESN is not populated or not equal to LBSTRESC.", "executability": "fully executable", "dataset": "lb.xpt", "USUBJID": "CDISC009", "row": 1811, "SEQ": 108, "variables": ["LBSTRESC", "LBSTRESN", "LBTESTCD"], "values": ["8.55", "8.549999999999999", "BILI"]}, {"core_id": "CORE-000542", "message": "LBSTRESC is numeric but LBSTRESN is not populated or not equal to LBSTRESC.", "executability": "fully executable", "dataset": "lb.xpt", "USUBJID": "CDISC009", "row": 1812, "SEQ": 109, "variables": ["LBSTRESC", "LBSTRESN", "LBTESTCD"], "values": ["4.998", "4.997999999999999", "UREAN"]}, {"core_id": "CORE-000542", "message": "LBSTRESC is numeric but LBSTRESN is not populated or not equal to LBSTRESC.", "executability": "fully executable", "dataset": "lb.xpt", "USUBJID": "CDISC009", "row": 1817, "SEQ": 114, "variables": ["LBSTRESC", "LBSTRESN", "LBTESTCD"], "values": ["79.56", "79.55999999999999", "CREAT"]}, {"core_id": "CORE-000542", "message": "LBSTRESC is numeric but LBSTRESN is not populated or not equal to LBSTRESC.", "executability": "fully executable", "dataset": "lb.xpt", "USUBJID": "CDISC009", "row": 1847, "SEQ": 144, "variables": ["LBSTRESC", "LBSTRESN", "LBTESTCD"], "values": ["79.56", "79.55999999999999", "CREAT"]}, {"core_id": "CORE-000542", "message": "LBSTRESC is numeric but LBSTRESN is not populated or not equal to LBSTRESC.", "executability": "fully executable", "dataset": "lb.xpt", "USUBJID": "CDISC009", "row": 1863, "SEQ": 160, "variables": ["LBSTRESC", "LBSTRESN", "LBTESTCD"], "values": ["4.4", "4.399999999999999", "RBC"]}, {"core_id": "CORE-000542", "message": "LBSTRESC is numeric but LBSTRESN is not populated or not equal to LBSTRESC.", "executability": "fully executable", "dataset": "lb.xpt", "USUBJID": "CDISC009", "row": 1871, "SEQ": 168, "variables": ["LBSTRESC", "LBSTRESN", "LBTESTCD"], "values": ["8.55", "8.549999999999999", "BILI"]}, {"core_id": "CORE-000542", "message": "LBSTRESC is numeric but LBSTRESN is not populated or not equal to LBSTRESC.", "executability": "fully executable", "dataset": "lb.xpt", "USUBJID": "CDISC009", "row": 1874, "SEQ": 171, "variables": ["LBSTRESC", "LBSTRESN", "LBTESTCD"], "values": ["5.40474", "5.404739999999999", "CHOL"]}, {"core_id": "CORE-000542", "message": "LBSTRESC is numeric but LBSTRESN is not populated or not equal to LBSTRESC.", "executability": "fully executable", "dataset": "lb.xpt", "USUBJID": "CDISC009", "row": 1878, "SEQ": 175, "variables": ["LBSTRESC", "LBSTRESN", "LBTESTCD"], "values": ["79.56", "79.55999999999999", "CREAT"]}, {"core_id": "CORE-000542", "message": "LBSTRESC is numeric but LBSTRESN is not populated or not equal to LBSTRESC.", "executability": "fully executable", "dataset": "lb.xpt", "USUBJID": "CDISC009", "row": 1883, "SEQ": 180, "variables": ["LBSTRESC", "LBSTRESN", "LBTESTCD"], "values": ["8.56428", "8.564279999999998", "HGB"]}, {"core_id": "CORE-000542", "message": "LBSTRESC is numeric but LBSTRESN is not populated or not equal to LBSTRESC.", "executability": "fully executable", "dataset": "lb.xpt", "USUBJID": "CDISC009", "row": 1910, "SEQ": 207, "variables": ["LBSTRESC", "LBSTRESN", "LBTESTCD"], "values": ["6.12882", "6.128819999999999", "CHOL"]}, {"core_id": "CORE-000542", "message": "LBSTRESC is numeric but LBSTRESN is not populated or not equal to LBSTRESC.", "executability": "fully executable", "dataset": "lb.xpt", "USUBJID": "CDISC009", "row": 1916, "SEQ": 213, "variables": ["LBSTRESC", "LBSTRESN", "LBTESTCD"], "values": ["4.55182", "4.551819999999999", "GLUC"]}, {"core_id": "CORE-000542", "message": "LBSTRESC is numeric but LBSTRESN is not populated or not equal to LBSTRESC.", "executability": "fully executable", "dataset": "lb.xpt", "USUBJID": "CDISC009", "row": 1938, "SEQ": 235, "variables": ["LBSTRESC", "LBSTRESN", "LBTESTCD"], "values": ["4.998", "4.997999999999999", "UREAN"]}, {"core_id": "CORE-000542", "message": "LBSTRESC is numeric but LBSTRESN is not populated or not equal to LBSTRESC.", "executability": "fully executable", "dataset": "lb.xpt", "USUBJID": "CDISC009", "row": 1940, "SEQ": 237, "variables": ["LBSTRESC", "LBSTRESN", "LBTESTCD"], "values": ["4.70652", "4.706519999999999", "CHOL"]}, {"core_id": "CORE-000542", "message": "LBSTRESC is numeric but LBSTRESN is not populated or not equal to LBSTRESC.", "executability": "fully executable", "dataset": "lb.xpt", "USUBJID": "CDISC009", "row": 1959, "SEQ": 256, "variables": ["LBSTRESC", "LBSTRESN", "LBTESTCD"], "values": ["4.2", "4.199999999999999", "RBC"]}, {"core_id": "CORE-000542", "message": "LBSTRESC is numeric but LBSTRESN is not populated or not equal to LBSTRESC.", "executability": "fully executable", "dataset": "lb.xpt", "USUBJID": "CDISC009", "row": 1970, "SEQ": 267, "variables": ["LBSTRESC", "LBSTRESN", "LBTESTCD"], "values": ["6.7236", "6.723599999999999", "CHOL"]}, {"core_id": "CORE-000542", "message": "LBSTRESC is numeric but LBSTRESN is not populated or not equal to LBSTRESC.", "executability": "fully executable", "dataset": "lb.xpt", "USUBJID": "CDISC009", "row": 1974, "SEQ": 271, "variables": ["LBSTRESC", "LBSTRESN", "LBTESTCD"], "values": ["79.56", "79.55999999999999", "CREAT"]}, {"core_id": "CORE-000542", "message": "LBSTRESC is numeric but LBSTRESN is not populated or not equal to LBSTRESC.", "executability": "fully executable", "dataset": "lb.xpt", "USUBJID": "CDISC009", "row": 1979, "SEQ": 276, "variables": ["LBSTRESC", "LBSTRESN", "LBTESTCD"], "values": ["8.56428", "8.564279999999998", "HGB"]}, {"core_id": "CORE-000542", "message": "LBSTRESC is numeric but LBSTRESN is not populated or not equal to LBSTRESC.", "executability": "fully executable", "dataset": "lb.xpt", "USUBJID": "CDISC009", "row": 1980, "SEQ": 277, "variables": ["LBSTRESC", "LBSTRESN", "LBTESTCD"], "values": ["4.2", "4.199999999999999", "K"]}, {"core_id": "CORE-000542", "message": "LBSTRESC is numeric but LBSTRESN is not populated or not equal to LBSTRESC.", "executability": "fully executable", "dataset": "lb.xpt", "USUBJID": "CDISC009", "row": 2003, "SEQ": 300, "variables": ["LBSTRESC", "LBSTRESN", "LBTESTCD"], "values": ["4.998", "4.997999999999999", "UREAN"]}, {"core_id": "CORE-000542", "message": "LBSTRESC is numeric but LBSTRESN is not populated or not equal to LBSTRESC.", "executability": "fully executable", "dataset": "lb.xpt", "USUBJID": "CDISC009", "row": 2005, "SEQ": 302, "variables": ["LBSTRESC", "LBSTRESN", "LBTESTCD"], "values": ["5.71506", "5.715059999999999", "CHOL"]}, {"core_id": "CORE-000542", "message": "LBSTRESC is numeric but LBSTRESN is not populated or not equal to LBSTRESC.", "executability": "fully executable", "dataset": "lb.xpt", "USUBJID": "CDISC009", "row": 2008, "SEQ": 305, "variables": ["LBSTRESC", "LBSTRESN", "LBTESTCD"], "values": ["79.56", "79.55999999999999", "CREAT"]}, {"core_id": "CORE-000542", "message": "LBSTRESC is numeric but LBSTRESN is not populated or not equal to LBSTRESC.", "executability": "fully executable", "dataset": "lb.xpt", "USUBJID": "CDISC009", "row": 2024, "SEQ": 321, "variables": ["LBSTRESC", "LBSTRESN", "LBTESTCD"], "values": ["4.4", "4.399999999999999", "RBC"]}, {"core_id": "CORE-000542", "message": "LBSTRESC is numeric but LBSTRESN is not populated or not equal to LBSTRESC.", "executability": "fully executable", "dataset": "lb.xpt", "USUBJID": "CDISC010", "row": 2033, "SEQ": 7, "variables": ["LBSTRESC", "LBSTRESN", "LBTESTCD"], "values": ["4.998", "4.997999999999999", "UREAN"]}, {"core_id": "CORE-000542", "message": "LBSTRESC is numeric but LBSTRESN is not populated or not equal to LBSTRESC.", "executability": "fully executable", "dataset": "lb.xpt", "USUBJID": "CDISC010", "row": 2039, "SEQ": 13, "variables": ["LBSTRESC", "LBSTRESN", "LBTESTCD"], "values": ["88.4", "88.39999999999998", "CREAT"]}, {"core_id": "CORE-000542", "message": "LBSTRESC is numeric but LBSTRESN is not populated or not equal to LBSTRESC.", "executability": "fully executable", "dataset": "lb.xpt", "USUBJID": "CDISC010", "row": 2042, "SEQ": 16, "variables": ["LBSTRESC", "LBSTRESN", "LBTESTCD"], "values": ["5.38447", "5.384469999999999", "GLUC"]}, {"core_id": "CORE-000542", "message": "LBSTRESC is numeric but LBSTRESN is not populated or not equal to LBSTRESC.", "executability": "fully executable", "dataset": "lb.xpt", "USUBJID": "CDISC010", "row": 2055, "SEQ": 29, "variables": ["LBSTRESC", "LBSTRESN", "LBTESTCD"], "values": ["4.4", "4.399999999999999", "RBC"]}, {"core_id": "CORE-000542", "message": "LBSTRESC is numeric but LBSTRESN is not populated or not equal to LBSTRESC.", "executability": "fully executable", "dataset": "lb.xpt", "USUBJID": "CDISC010", "row": 2068, "SEQ": 42, "variables": ["LBSTRESC", "LBSTRESN", "LBTESTCD"], "values": ["8.211", "8.210999999999999", "UREAN"]}, {"core_id": "CORE-000542", "message": "LBSTRESC is numeric but LBSTRESN is not populated or not equal to LBSTRESC.", "executability": "fully executable", "dataset": "lb.xpt", "USUBJID": "CDISC011", "row": 2109, "SEQ": 18, "variables": ["LBSTRESC", "LBSTRESN", "LBTESTCD"], "values": ["9.74342", "9.743419999999999", "HGB"]}, {"core_id": "CORE-000542", "message": "LBSTRESC is numeric but LBSTRESN is not populated or not equal to LBSTRESC.", "executability": "fully executable", "dataset": "lb.xpt", "USUBJID": "CDISC011", "row": 2110, "SEQ": 19, "variables": ["LBSTRESC", "LBSTRESN", "LBTESTCD"], "values": ["4.9", "4.899999999999999", "K"]}, {"core_id": "CORE-000542", "message": "LBSTRESC is numeric but LBSTRESN is not populated or not equal to LBSTRESC.", "executability": "fully executable", "dataset": "lb.xpt", "USUBJID": "CDISC011", "row": 2137, "SEQ": 46, "variables": ["LBSTRESC", "LBSTRESN", "LBTESTCD"], "values": ["4.18932", "4.189319999999999", "CHOL"]}, {"core_id": "CORE-000542", "message": "LBSTRESC is numeric but LBSTRESN is not populated or not equal to LBSTRESC.", "executability": "fully executable", "dataset": "lb.xpt", "USUBJID": "CDISC011", "row": 2170, "SEQ": 79, "variables": ["LBSTRESC", "LBSTRESN", "LBTESTCD"], "values": ["4.998", "4.997999999999999", "UREAN"]}, {"core_id": "CORE-000542", "message": "LBSTRESC is numeric but LBSTRESN is not populated or not equal to LBSTRESC.", "executability": "fully executable", "dataset": "lb.xpt", "USUBJID": "CDISC011", "row": 2181, "SEQ": 90, "variables": ["LBSTRESC", "LBSTRESN", "LBTESTCD"], "values": ["4.2", "4.199999999999999", "K"]}, {"core_id": "CORE-000542", "message": "LBSTRESC is numeric but LBSTRESN is not populated or not equal to LBSTRESC.", "executability": "fully executable", "dataset": "lb.xpt", "USUBJID": "CDISC011", "row": 2192, "SEQ": 101, "variables": ["LBSTRESC", "LBSTRESN", "LBTESTCD"], "values": ["249.816", "249.81599999999997", "URATE"]}, {"core_id": "CORE-000542", "message": "LBSTRESC is numeric but LBSTRESN is not populated or not equal to LBSTRESC.", "executability": "fully executable", "dataset": "lb.xpt", "USUBJID": "CDISC011", "row": 2199, "SEQ": 108, "variables": ["LBSTRESC", "LBSTRESN", "LBTESTCD"], "values": ["8.55", "8.549999999999999", "BILI"]}, {"core_id": "CORE-000542", "message": "LBSTRESC is numeric but LBSTRESN is not populated or not equal to LBSTRESC.", "executability": "fully executable", "dataset": "lb.xpt", "USUBJID": "CDISC011", "row": 2208, "SEQ": 117, "variables": ["LBSTRESC", "LBSTRESN", "LBTESTCD"], "values": ["4.38529", "4.385289999999999", "GLUC"]}, {"core_id": "CORE-000542", "message": "LBSTRESC is numeric but LBSTRESN is not populated or not equal to LBSTRESC.", "executability": "fully executable", "dataset": "lb.xpt", "USUBJID": "CDISC011", "row": 2221, "SEQ": 130, "variables": ["LBSTRESC", "LBSTRESN", "LBTESTCD"], "values": ["4.7", "4.699999999999999", "RBC"]}, {"core_id": "CORE-000542", "message": "LBSTRESC is numeric but LBSTRESN is not populated or not equal to LBSTRESC.", "executability": "fully executable", "dataset": "lb.xpt", "USUBJID": "CDISC011", "row": 2262, "SEQ": 171, "variables": ["LBSTRESC", "LBSTRESN", "LBTESTCD"], "values": ["4.0083", "4.008299999999999", "CHOL"]}, {"core_id": "CORE-000542", "message": "LBSTRESC is numeric but LBSTRESN is not populated or not equal to LBSTRESC.", "executability": "fully executable", "dataset": "lb.xpt", "USUBJID": "CDISC011", "row": 2271, "SEQ": 180, "variables": ["LBSTRESC", "LBSTRESN", "LBTESTCD"], "values": ["4.2", "4.199999999999999", "K"]}, {"core_id": "CORE-000542", "message": "LBSTRESC is numeric but LBSTRESN is not populated or not equal to LBSTRESC.", "executability": "fully executable", "dataset": "lb.xpt", "USUBJID": "CDISC011", "row": 2284, "SEQ": 193, "variables": ["LBSTRESC", "LBSTRESN", "LBTESTCD"], "values": ["4.7", "4.699999999999999", "RBC"]}, {"core_id": "CORE-000542", "message": "LBSTRESC is numeric but LBSTRESN is not populated or not equal to LBSTRESC.", "executability": "fully executable", "dataset": "lb.xpt", "USUBJID": "CDISC011", "row": 2316, "SEQ": 225, "variables": ["LBSTRESC", "LBSTRESN", "LBTESTCD"], "values": ["4.7", "4.699999999999999", "RBC"]}, {"core_id": "CORE-000542", "message": "LBSTRESC is numeric but LBSTRESN is not populated or not equal to LBSTRESC.", "executability": "fully executable", "dataset": "lb.xpt", "USUBJID": "CDISC011", "row": 2318, "SEQ": 227, "variables": ["LBSTRESC", "LBSTRESN", "LBTESTCD"], "values": ["6.49", "6.489999999999999", "WBC"]}, {"core_id": "CORE-000542", "message": "LBSTRESC is numeric but LBSTRESN is not populated or not equal to LBSTRESC.", "executability": "fully executable", "dataset": "lb.xpt", "USUBJID": "CDISC011", "row": 2324, "SEQ": 233, "variables": ["LBSTRESC", "LBSTRESN", "LBTESTCD"], "values": ["8.55", "8.549999999999999", "BILI"]}, {"core_id": "CORE-000542", "message": "LBSTRESC is numeric but LBSTRESN is not populated or not equal to LBSTRESC.", "executability": "fully executable", "dataset": "lb.xpt", "USUBJID": "CDISC011", "row": 2325, "SEQ": 234, "variables": ["LBSTRESC", "LBSTRESN", "LBTESTCD"], "values": ["6.783", "6.782999999999999", "UREAN"]}, {"core_id": "CORE-000542", "message": "LBSTRESC is numeric but LBSTRESN is not populated or not equal to LBSTRESC.", "executability": "fully executable", "dataset": "lb.xpt", "USUBJID": "CDISC011", "row": 2333, "SEQ": 242, "variables": ["LBSTRESC", "LBSTRESN", "LBTESTCD"], "values": ["4.4408", "4.440799999999999", "GLUC"]}, {"core_id": "CORE-000542", "message": "LBSTRESC is numeric but LBSTRESN is not populated or not equal to LBSTRESC.", "executability": "fully executable", "dataset": "lb.xpt", "USUBJID": "CDISC011", "row": 2335, "SEQ": 244, "variables": ["LBSTRESC", "LBSTRESN", "LBTESTCD"], "values": ["9.24694", "9.246939999999999", "HGB"]}, {"core_id": "CORE-000542", "message": "LBSTRESC is numeric but LBSTRESN is not populated or not equal to LBSTRESC.", "executability": "fully executable", "dataset": "lb.xpt", "USUBJID": "CDISC011", "row": 2354, "SEQ": 263, "variables": ["LBSTRESC", "LBSTRESN", "LBTESTCD"], "values": ["8.55", "8.549999999999999", "BILI"]}, {"core_id": "CORE-000542", "message": "LBSTRESC is numeric but LBSTRESN is not populated or not equal to LBSTRESC.", "executability": "fully executable", "dataset": "lb.xpt", "USUBJID": "CDISC011", "row": 2357, "SEQ": 266, "variables": ["LBSTRESC", "LBSTRESN", "LBTESTCD"], "values": ["4.21518", "4.215179999999999", "CHOL"]}, {"core_id": "CORE-000542", "message": "LBSTRESC is numeric but LBSTRESN is not populated or not equal to LBSTRESC.", "executability": "fully executable", "dataset": "lb.xpt", "USUBJID": "CDISC011", "row": 2367, "SEQ": 276, "variables": ["LBSTRESC", "LBSTRESN", "LBTESTCD"], "values": ["4.2", "4.199999999999999", "K"]}, {"core_id": "CORE-000542", "message": "LBSTRESC is numeric but LBSTRESN is not populated or not equal to LBSTRESC.", "executability": "fully executable", "dataset": "lb.xpt", "USUBJID": "CDISC011", "row": 2379, "SEQ": 288, "variables": ["LBSTRESC", "LBSTRESN", "LBTESTCD"], "values": ["4.9", "4.899999999999999", "RBC"]}, {"core_id": "CORE-000542", "message": "LBSTRESC is numeric but LBSTRESN is not populated or not equal to LBSTRESC.", "executability": "fully executable", "dataset": "lb.xpt", "USUBJID": "CDISC011", "row": 2389, "SEQ": 298, "variables": ["LBSTRESC", "LBSTRESN", "LBTESTCD"], "values": ["8.55", "8.549999999999999", "BILI"]}, {"core_id": "CORE-000542", "message": "LBSTRESC is numeric but LBSTRESN is not populated or not equal to LBSTRESC.", "executability": "fully executable", "dataset": "lb.xpt", "USUBJID": "CDISC011", "row": 2398, "SEQ": 307, "variables": ["LBSTRESC", "LBSTRESN", "LBTESTCD"], "values": ["4.55182", "4.551819999999999", "GLUC"]}, {"core_id": "CORE-000542", "message": "LBSTRESC is numeric but LBSTRESN is not populated or not equal to LBSTRESC.", "executability": "fully executable", "dataset": "lb.xpt", "USUBJID": "CDISC011", "row": 2400, "SEQ": 309, "variables": ["LBSTRESC", "LBSTRESN", "LBTESTCD"], "values": ["8.75046", "8.750459999999999", "HGB"]}, {"core_id": "CORE-000542", "message": "LBSTRESC is numeric but LBSTRESN is not populated or not equal to LBSTRESC.", "executability": "fully executable", "dataset": "lb.xpt", "USUBJID": "CDISC012", "row": 2482, "SEQ": 68, "variables": ["LBSTRESC", "LBSTRESN", "LBTESTCD"], "values": ["4.7", "4.699999999999999", "RBC"]}, {"core_id": "CORE-000542", "message": "LBSTRESC is numeric but LBSTRESN is not populated or not equal to LBSTRESC.", "executability": "fully executable", "dataset": "lb.xpt", "USUBJID": "CDISC012", "row": 2486, "SEQ": 72, "variables": ["LBSTRESC", "LBSTRESN", "LBTESTCD"], "values": ["5.24", "5.239999999999999", "WBC"]}, {"core_id": "CORE-000542", "message": "LBSTRESC is numeric but LBSTRESN is not populated or not equal to LBSTRESC.", "executability": "fully executable", "dataset": "lb.xpt", "USUBJID": "CDISC012", "row": 2501, "SEQ": 87, "variables": ["LBSTRESC", "LBSTRESN", "LBTESTCD"], "values": ["4.55182", "4.551819999999999", "GLUC"]}, {"core_id": "CORE-000542", "message": "LBSTRESC is numeric but LBSTRESN is not populated or not equal to LBSTRESC.", "executability": "fully executable", "dataset": "lb.xpt", "USUBJID": "CDISC012", "row": 2523, "SEQ": 109, "variables": ["LBSTRESC", "LBSTRESN", "LBTESTCD"], "values": ["4.998", "4.997999999999999", "UREAN"]}, {"core_id": "CORE-000542", "message": "LBSTRESC is numeric but LBSTRESN is not populated or not equal to LBSTRESC.", "executability": "fully executable", "dataset": "lb.xpt", "USUBJID": "CDISC012", "row": 2544, "SEQ": 130, "variables": ["LBSTRESC", "LBSTRESN", "LBTESTCD"], "values": ["4.4", "4.399999999999999", "RBC"]}, {"core_id": "CORE-000542", "message": "LBSTRESC is numeric but LBSTRESN is not populated or not equal to LBSTRESC.", "executability": "fully executable", "dataset": "lb.xpt", "USUBJID": "CDISC012", "row": 2546, "SEQ": 132, "variables": ["LBSTRESC", "LBSTRESN", "LBTESTCD"], "values": ["5.41", "5.409999999999999", "WBC"]}, {"core_id": "CORE-000542", "message": "LBSTRESC is numeric but LBSTRESN is not populated or not equal to LBSTRESC.", "executability": "fully executable", "dataset": "lb.xpt", "USUBJID": "CDISC012", "row": 2576, "SEQ": 162, "variables": ["LBSTRESC", "LBSTRESN", "LBTESTCD"], "values": ["5.74", "5.739999999999999", "WBC"]}, {"core_id": "CORE-000542", "message": "LBSTRESC is numeric but LBSTRESN is not populated or not equal to LBSTRESC.", "executability": "fully executable", "dataset": "lb.xpt", "USUBJID": "CDISC012", "row": 2607, "SEQ": 193, "variables": ["LBSTRESC", "LBSTRESN", "LBTESTCD"], "values": ["4.7", "4.699999999999999", "RBC"]}, {"core_id": "CORE-000542", "message": "LBSTRESC is numeric but LBSTRESN is not populated or not equal to LBSTRESC.", "executability": "fully executable", "dataset": "lb.xpt", "USUBJID": "CDISC012", "row": 2620, "SEQ": 206, "variables": ["LBSTRESC", "LBSTRESN", "LBTESTCD"], "values": ["5.40474", "5.404739999999999", "CHOL"]}, {"core_id": "CORE-000542", "message": "LBSTRESC is numeric but LBSTRESN is not populated or not equal to LBSTRESC.", "executability": "fully executable", "dataset": "lb.xpt", "USUBJID": "CDISC012", "row": 2639, "SEQ": 225, "variables": ["LBSTRESC", "LBSTRESN", "LBTESTCD"], "values": ["4.7", "4.699999999999999", "RBC"]}, {"core_id": "CORE-000542", "message": "LBSTRESC is numeric but LBSTRESN is not populated or not equal to LBSTRESC.", "executability": "fully executable", "dataset": "lb.xpt", "USUBJID": "CDISC012", "row": 2641, "SEQ": 227, "variables": ["LBSTRESC", "LBSTRESN", "LBTESTCD"], "values": ["5.49", "5.489999999999999", "WBC"]}, {"core_id": "CORE-000542", "message": "LBSTRESC is numeric but LBSTRESN is not populated or not equal to LBSTRESC.", "executability": "fully executable", "dataset": "lb.xpt", "USUBJID": "CDISC012", "row": 2660, "SEQ": 246, "variables": ["LBSTRESC", "LBSTRESN", "LBTESTCD"], "values": ["4.2", "4.199999999999999", "K"]}, {"core_id": "CORE-000542", "message": "LBSTRESC is numeric but LBSTRESN is not populated or not equal to LBSTRESC.", "executability": "fully executable", "dataset": "lb.xpt", "USUBJID": "CDISC012", "row": 2676, "SEQ": 262, "variables": ["LBSTRESC", "LBSTRESN", "LBTESTCD"], "values": ["5.07", "5.069999999999999", "WBC"]}, {"core_id": "CORE-000542", "message": "LBSTRESC is numeric but LBSTRESN is not populated or not equal to LBSTRESC.", "executability": "fully executable", "dataset": "lb.xpt", "USUBJID": "CDISC013", "row": 2682, "SEQ": 6, "variables": ["LBSTRESC", "LBSTRESN", "LBTESTCD"], "values": ["8.55", "8.549999999999999", "BILI"]}, {"core_id": "CORE-000542", "message": "LBSTRESC is numeric but LBSTRESN is not populated or not equal to LBSTRESC.", "executability": "fully executable", "dataset": "lb.xpt", "USUBJID": "CDISC013", "row": 2694, "SEQ": 18, "variables": ["LBSTRESC", "LBSTRESN", "LBTESTCD"], "values": ["9.43312", "9.433119999999999", "HGB"]}, {"core_id": "CORE-000542", "message": "LBSTRESC is numeric but LBSTRESN is not populated or not equal to LBSTRESC.", "executability": "fully executable", "dataset": "lb.xpt", "USUBJID": "CDISC013", "row": 2695, "SEQ": 19, "variables": ["LBSTRESC", "LBSTRESN", "LBTESTCD"], "values": ["4.2", "4.199999999999999", "K"]}, {"core_id": "CORE-000542", "message": "LBSTRESC is numeric but LBSTRESN is not populated or not equal to LBSTRESC.", "executability": "fully executable", "dataset": "lb.xpt", "USUBJID": "CDISC014", "row": 2719, "SEQ": 6, "variables": ["LBSTRESC", "LBSTRESN", "LBTESTCD"], "values": ["8.55", "8.549999999999999", "BILI"]}, {"core_id": "CORE-000542", "message": "LBSTRESC is numeric but LBSTRESN is not populated or not equal to LBSTRESC.", "executability": "fully executable", "dataset": "lb.xpt", "USUBJID": "CDISC014", "row": 2755, "SEQ": 42, "variables": ["LBSTRESC", "LBSTRESN", "LBTESTCD"], "values": ["8.55", "8.549999999999999", "BILI"]}, {"core_id": "CORE-000542", "message": "LBSTRESC is numeric but LBSTRESN is not populated or not equal to LBSTRESC.", "executability": "fully executable", "dataset": "lb.xpt", "USUBJID": "CDISC014", "row": 2799, "SEQ": 86, "variables": ["LBSTRESC", "LBSTRESN", "LBTESTCD"], "values": ["4.7", "4.699999999999999", "RBC"]}, {"core_id": "CORE-000542", "message": "LBSTRESC is numeric but LBSTRESN is not populated or not equal to LBSTRESC.", "executability": "fully executable", "dataset": "lb.xpt", "USUBJID": "CDISC014", "row": 2809, "SEQ": 96, "variables": ["LBSTRESC", "LBSTRESN", "LBTESTCD"], "values": ["8.55", "8.549999999999999", "BILI"]}, {"core_id": "CORE-000542", "message": "LBSTRESC is numeric but LBSTRESN is not populated or not equal to LBSTRESC.", "executability": "fully executable", "dataset": "lb.xpt", "USUBJID": "CDISC014", "row": 2834, "SEQ": 121, "variables": ["LBSTRESC", "LBSTRESN", "LBTESTCD"], "values": ["4.2", "4.199999999999999", "RBC"]}, {"core_id": "CORE-000542", "message": "LBSTRESC is numeric but LBSTRESN is not populated or not equal to LBSTRESC.", "executability": "fully executable", "dataset": "lb.xpt", "USUBJID": "CDISC016", "row": 2851, "SEQ": 13, "variables": ["LBSTRESC", "LBSTRESN", "LBTESTCD"], "values": ["88.4", "88.39999999999998", "CREAT"]}, {"core_id": "CORE-000542", "message": "LBSTRESC is numeric but LBSTRESN is not populated or not equal to LBSTRESC.", "executability": "fully executable", "dataset": "lb.xpt", "USUBJID": "CDISC016", "row": 2856, "SEQ": 18, "variables": ["LBSTRESC", "LBSTRESN", "LBTESTCD"], "values": ["8.75046", "8.750459999999999", "HGB"]}, {"core_id": "CORE-000542", "message": "LBSTRESC is numeric but LBSTRESN is not populated or not equal to LBSTRESC.", "executability": "fully executable", "dataset": "lb.xpt", "USUBJID": "CDISC016", "row": 2869, "SEQ": 31, "variables": ["LBSTRESC", "LBSTRESN", "LBTESTCD"], "values": ["4.7", "4.699999999999999", "RBC"]}, {"core_id": "CORE-000542", "message": "LBSTRESC is numeric but LBSTRESN is not populated or not equal to LBSTRESC.", "executability": "fully executable", "dataset": "lb.xpt", "USUBJID": "CDISC016", "row": 2888, "SEQ": 50, "variables": ["LBSTRESC", "LBSTRESN", "LBTESTCD"], "values": ["88.4", "88.39999999999998", "CREAT"]}, {"core_id": "CORE-000542", "message": "LBSTRESC is numeric but LBSTRESN is not populated or not equal to LBSTRESC.", "executability": "fully executable", "dataset": "lb.xpt", "USUBJID": "CDISC016", "row": 2893, "SEQ": 55, "variables": ["LBSTRESC", "LBSTRESN", "LBTESTCD"], "values": ["8.93664", "8.936639999999999", "HGB"]}, {"core_id": "CORE-000542", "message": "LBSTRESC is numeric but LBSTRESN is not populated or not equal to LBSTRESC.", "executability": "fully executable", "dataset": "lb.xpt", "USUBJID": "CDISC016", "row": 2894, "SEQ": 56, "variables": ["LBSTRESC", "LBSTRESN", "LBTESTCD"], "values": ["4.7", "4.699999999999999", "K"]}, {"core_id": "CORE-000542", "message": "LBSTRESC is numeric but LBSTRESN is not populated or not equal to LBSTRESC.", "executability": "fully executable", "dataset": "lb.xpt", "USUBJID": "CDISC016", "row": 2906, "SEQ": 68, "variables": ["LBSTRESC", "LBSTRESN", "LBTESTCD"], "values": ["4.7", "4.699999999999999", "RBC"]}, {"core_id": "CORE-000542", "message": "LBSTRESC is numeric but LBSTRESN is not populated or not equal to LBSTRESC.", "executability": "fully executable", "dataset": "lb.xpt", "USUBJID": "CDISC016", "row": 2910, "SEQ": 72, "variables": ["LBSTRESC", "LBSTRESN", "LBTESTCD"], "values": ["6.57", "6.569999999999999", "WBC"]}, {"core_id": "CORE-000542", "message": "LBSTRESC is numeric but LBSTRESN is not populated or not equal to LBSTRESC.", "executability": "fully executable", "dataset": "lb.xpt", "USUBJID": "CDISC016", "row": 2940, "SEQ": 102, "variables": ["LBSTRESC", "LBSTRESN", "LBTESTCD"], "values": ["6.24", "6.239999999999999", "WBC"]}, {"core_id": "CORE-000542", "message": "LBSTRESC is numeric but LBSTRESN is not populated or not equal to LBSTRESC.", "executability": "fully executable", "dataset": "lb.xpt", "USUBJID": "CDISC016", "row": 2947, "SEQ": 109, "variables": ["LBSTRESC", "LBSTRESN", "LBTESTCD"], "values": ["4.998", "4.997999999999999", "UREAN"]}, {"core_id": "CORE-000542", "message": "LBSTRESC is numeric but LBSTRESN is not populated or not equal to LBSTRESC.", "executability": "fully executable", "dataset": "lb.xpt", "USUBJID": "CDISC016", "row": 2955, "SEQ": 117, "variables": ["LBSTRESC", "LBSTRESN", "LBTESTCD"], "values": ["5.551", "5.550999999999999", "GLUC"]}, {"core_id": "CORE-000542", "message": "LBSTRESC is numeric but LBSTRESN is not populated or not equal to LBSTRESC.", "executability": "fully executable", "dataset": "lb.xpt", "USUBJID": "CDISC016", "row": 2957, "SEQ": 119, "variables": ["LBSTRESC", "LBSTRESN", "LBTESTCD"], "values": ["4.2", "4.199999999999999", "K"]}, {"core_id": "CORE-000542", "message": "LBSTRESC is numeric but LBSTRESN is not populated or not equal to LBSTRESC.", "executability": "fully executable", "dataset": "lb.xpt", "USUBJID": "CDISC016", "row": 2965, "SEQ": 127, "variables": ["LBSTRESC", "LBSTRESN", "LBTESTCD"], "values": ["4.4", "4.399999999999999", "RBC"]}, {"core_id": "CORE-000542", "message": "LBSTRESC is numeric but LBSTRESN is not populated or not equal to LBSTRESC.", "executability": "fully executable", "dataset": "lb.xpt", "USUBJID": "CDISC016", "row": 2976, "SEQ": 138, "variables": ["LBSTRESC", "LBSTRESN", "LBTESTCD"], "values": ["4.49964", "4.499639999999999", "CHOL"]}, {"core_id": "CORE-000542", "message": "LBSTRESC is numeric but LBSTRESN is not populated or not equal to LBSTRESC.", "executability": "fully executable", "dataset": "lb.xpt", "USUBJID": "CDISC016", "row": 2978, "SEQ": 140, "variables": ["LBSTRESC", "LBSTRESN", "LBTESTCD"], "values": ["88.4", "88.39999999999998", "CREAT"]}, {"core_id": "CORE-000542", "message": "LBSTRESC is numeric but LBSTRESN is not populated or not equal to LBSTRESC.", "executability": "fully executable", "dataset": "lb.xpt", "USUBJID": "CDISC016", "row": 2992, "SEQ": 154, "variables": ["LBSTRESC", "LBSTRESN", "LBTESTCD"], "values": ["4.4", "4.399999999999999", "RBC"]}, {"core_id": "CORE-000542", "message": "LBSTRESC is numeric but LBSTRESN is not populated or not equal to LBSTRESC.", "executability": "fully executable", "dataset": "lb.xpt", "USUBJID": "CDISC016", "row": 3003, "SEQ": 165, "variables": ["LBSTRESC", "LBSTRESN", "LBTESTCD"], "values": ["4.9134", "4.913399999999999", "CHOL"]}, {"core_id": "CORE-000542", "message": "LBSTRESC is numeric but LBSTRESN is not populated or not equal to LBSTRESC.", "executability": "fully executable", "dataset": "lb.xpt", "USUBJID": "CDISC016", "row": 3031, "SEQ": 193, "variables": ["LBSTRESC", "LBSTRESN", "LBTESTCD"], "values": ["6.426", "6.425999999999999", "UREAN"]}, {"core_id": "CORE-000542", "message": "LBSTRESC is numeric but LBSTRESN is not populated or not equal to LBSTRESC.", "executability": "fully executable", "dataset": "lb.xpt", "USUBJID": "CDISC016", "row": 3033, "SEQ": 195, "variables": ["LBSTRESC", "LBSTRESN", "LBTESTCD"], "values": ["4.70652", "4.706519999999999", "CHOL"]}, {"core_id": "CORE-000542", "message": "LBSTRESC is numeric but LBSTRESN is not populated or not equal to LBSTRESC.", "executability": "fully executable", "dataset": "lb.xpt", "USUBJID": "CDISC016", "row": 3042, "SEQ": 204, "variables": ["LBSTRESC", "LBSTRESN", "LBTESTCD"], "values": ["8.25398", "8.253979999999999", "HGB"]}, {"core_id": "CORE-000542", "message": "LBSTRESC is numeric but LBSTRESN is not populated or not equal to LBSTRESC.", "executability": "fully executable", "dataset": "lb.xpt", "USUBJID": "CDISC017", "row": 3103, "SEQ": 44, "variables": ["LBSTRESC", "LBSTRESN", "LBTESTCD"], "values": ["8.211", "8.210999999999999", "UREAN"]}, {"core_id": "CORE-000542", "message": "LBSTRESC is numeric but LBSTRESN is not populated or not equal to LBSTRESC.", "executability": "fully executable", "dataset": "lb.xpt", "USUBJID": "CDISC017", "row": 3129, "SEQ": 70, "variables": ["LBSTRESC", "LBSTRESN", "LBTESTCD"], "values": ["249.816", "249.81599999999997", "URATE"]}, {"core_id": "CORE-000542", "message": "LBSTRESC is numeric but LBSTRESN is not populated or not equal to LBSTRESC.", "executability": "fully executable", "dataset": "lb.xpt", "USUBJID": "CDISC017", "row": 3138, "SEQ": 79, "variables": ["LBSTRESC", "LBSTRESN", "LBTESTCD"], "values": ["6.426", "6.425999999999999", "UREAN"]}, {"core_id": "CORE-000542", "message": "LBSTRESC is numeric but LBSTRESN is not populated or not equal to LBSTRESC.", "executability": "fully executable", "dataset": "lb.xpt", "USUBJID": "CDISC017", "row": 3140, "SEQ": 81, "variables": ["LBSTRESC", "LBSTRESN", "LBTESTCD"], "values": ["4.11174", "4.111739999999999", "CHOL"]}, {"core_id": "CORE-000542", "message": "LBSTRESC is numeric but LBSTRESN is not populated or not equal to LBSTRESC.", "executability": "fully executable", "dataset": "lb.xpt", "USUBJID": "CDISC017", "row": 3168, "SEQ": 109, "variables": ["LBSTRESC", "LBSTRESN", "LBTESTCD"], "values": ["6.426", "6.425999999999999", "UREAN"]}, {"core_id": "CORE-000542", "message": "LBSTRESC is numeric but LBSTRESN is not populated or not equal to LBSTRESC.", "executability": "fully executable", "dataset": "lb.xpt", "USUBJID": "CDISC017", "row": 3170, "SEQ": 111, "variables": ["LBSTRESC", "LBSTRESN", "LBTESTCD"], "values": ["4.60308", "4.603079999999999", "CHOL"]}, {"core_id": "CORE-000542", "message": "LBSTRESC is numeric but LBSTRESN is not populated or not equal to LBSTRESC.", "executability": "fully executable", "dataset": "lb.xpt", "USUBJID": "CDISC017", "row": 3198, "SEQ": 139, "variables": ["LBSTRESC", "LBSTRESN", "LBTESTCD"], "values": ["6.426", "6.425999999999999", "UREAN"]}, {"core_id": "CORE-000542", "message": "LBSTRESC is numeric but LBSTRESN is not populated or not equal to LBSTRESC.", "executability": "fully executable", "dataset": "lb.xpt", "USUBJID": "CDISC017", "row": 3219, "SEQ": 160, "variables": ["LBSTRESC", "LBSTRESN", "LBTESTCD"], "values": ["4.2", "4.199999999999999", "RBC"]}, {"core_id": "CORE-000542", "message": "LBSTRESC is numeric but LBSTRESN is not populated or not equal to LBSTRESC.", "executability": "fully executable", "dataset": "lb.xpt", "USUBJID": "CDISC017", "row": 3228, "SEQ": 169, "variables": ["LBSTRESC", "LBSTRESN", "LBTESTCD"], "values": ["6.783", "6.782999999999999", "UREAN"]}, {"core_id": "CORE-000542", "message": "LBSTRESC is numeric but LBSTRESN is not populated or not equal to LBSTRESC.", "executability": "fully executable", "dataset": "lb.xpt", "USUBJID": "CDISC017", "row": 3230, "SEQ": 171, "variables": ["LBSTRESC", "LBSTRESN", "LBTESTCD"], "values": ["4.18932", "4.189319999999999", "CHOL"]}, {"core_id": "CORE-000542", "message": "LBSTRESC is numeric but LBSTRESN is not populated or not equal to LBSTRESC.", "executability": "fully executable", "dataset": "lb.xpt", "USUBJID": "CDISC017", "row": 3284, "SEQ": 225, "variables": ["LBSTRESC", "LBSTRESN", "LBTESTCD"], "values": ["4.2", "4.199999999999999", "RBC"]}, {"core_id": "CORE-000542", "message": "LBSTRESC is numeric but LBSTRESN is not populated or not equal to LBSTRESC.", "executability": "fully executable", "dataset": "lb.xpt", "USUBJID": "CDISC017", "row": 3286, "SEQ": 227, "variables": ["LBSTRESC", "LBSTRESN", "LBTESTCD"], "values": ["5.32", "5.319999999999999", "WBC"]}, {"core_id": "CORE-000542", "message": "LBSTRESC is numeric but LBSTRESN is not populated or not equal to LBSTRESC.", "executability": "fully executable", "dataset": "lb.xpt", "USUBJID": "CDISC017", "row": 3293, "SEQ": 234, "variables": ["LBSTRESC", "LBSTRESN", "LBTESTCD"], "values": ["6.783", "6.782999999999999", "UREAN"]}, {"core_id": "CORE-000542", "message": "LBSTRESC is numeric but LBSTRESN is not populated or not equal to LBSTRESC.", "executability": "fully executable", "dataset": "lb.xpt", "USUBJID": "CDISC017", "row": 3321, "SEQ": 262, "variables": ["LBSTRESC", "LBSTRESN", "LBTESTCD"], "values": ["5.86", "5.859999999999999", "WBC"]}, {"core_id": "CORE-000542", "message": "LBSTRESC is numeric but LBSTRESN is not populated or not equal to LBSTRESC.", "executability": "fully executable", "dataset": "lb.xpt", "USUBJID": "CDISC018", "row": 3327, "SEQ": 6, "variables": ["LBSTRESC", "LBSTRESN", "LBTESTCD"], "values": ["8.55", "8.549999999999999", "BILI"]}, {"core_id": "CORE-000542", "message": "LBSTRESC is numeric but LBSTRESN is not populated or not equal to LBSTRESC.", "executability": "fully executable", "dataset": "lb.xpt", "USUBJID": "CDISC018", "row": 3334, "SEQ": 13, "variables": ["LBSTRESC", "LBSTRESN", "LBTESTCD"], "values": ["79.56", "79.55999999999999", "CREAT"]}, {"core_id": "CORE-000542", "message": "LBSTRESC is numeric but LBSTRESN is not populated or not equal to LBSTRESC.", "executability": "fully executable", "dataset": "lb.xpt", "USUBJID": "CDISC018", "row": 3337, "SEQ": 16, "variables": ["LBSTRESC", "LBSTRESN", "LBTESTCD"], "values": ["4.55182", "4.551819999999999", "GLUC"]}, {"core_id": "CORE-000542", "message": "LBSTRESC is numeric but LBSTRESN is not populated or not equal to LBSTRESC.", "executability": "fully executable", "dataset": "lb.xpt", "USUBJID": "CDISC018", "row": 3371, "SEQ": 50, "variables": ["LBSTRESC", "LBSTRESN", "LBTESTCD"], "values": ["88.4", "88.39999999999998", "CREAT"]}, {"core_id": "CORE-000542", "message": "LBSTRESC is numeric but LBSTRESN is not populated or not equal to LBSTRESC.", "executability": "fully executable", "dataset": "lb.xpt", "USUBJID": "CDISC018", "row": 3400, "SEQ": 79, "variables": ["LBSTRESC", "LBSTRESN", "LBTESTCD"], "values": ["4.998", "4.997999999999999", "UREAN"]}, {"core_id": "CORE-000542", "message": "LBSTRESC is numeric but LBSTRESN is not populated or not equal to LBSTRESC.", "executability": "fully executable", "dataset": "lb.xpt", "USUBJID": "CDISC018", "row": 3402, "SEQ": 81, "variables": ["LBSTRESC", "LBSTRESN", "LBTESTCD"], "values": ["5.71506", "5.715059999999999", "CHOL"]}, {"core_id": "CORE-000542", "message": "LBSTRESC is numeric but LBSTRESN is not populated or not equal to LBSTRESC.", "executability": "fully executable", "dataset": "lb.xpt", "USUBJID": "CDISC018", "row": 3405, "SEQ": 84, "variables": ["LBSTRESC", "LBSTRESN", "LBTESTCD"], "values": ["88.4", "88.39999999999998", "CREAT"]}, {"core_id": "CORE-000542", "message": "LBSTRESC is numeric but LBSTRESN is not populated or not equal to LBSTRESC.", "executability": "fully executable", "dataset": "lb.xpt", "USUBJID": "CDISC018", "row": 3408, "SEQ": 87, "variables": ["LBSTRESC", "LBSTRESN", "LBTESTCD"], "values": ["4.60733", "4.607329999999999", "GLUC"]}, {"core_id": "CORE-000542", "message": "LBSTRESC is numeric but LBSTRESN is not populated or not equal to LBSTRESC.", "executability": "fully executable", "dataset": "lb.xpt", "USUBJID": "CDISC018", "row": 3429, "SEQ": 108, "variables": ["LBSTRESC", "LBSTRESN", "LBTESTCD"], "values": ["8.55", "8.549999999999999", "BILI"]}, {"core_id": "CORE-000542", "message": "LBSTRESC is numeric but LBSTRESN is not populated or not equal to LBSTRESC.", "executability": "fully executable", "dataset": "lb.xpt", "USUBJID": "CDISC018", "row": 3432, "SEQ": 111, "variables": ["LBSTRESC", "LBSTRESN", "LBTESTCD"], "values": ["5.71506", "5.715059999999999", "CHOL"]}, {"core_id": "CORE-000542", "message": "LBSTRESC is numeric but LBSTRESN is not populated or not equal to LBSTRESC.", "executability": "fully executable", "dataset": "lb.xpt", "USUBJID": "CDISC018", "row": 3435, "SEQ": 114, "variables": ["LBSTRESC", "LBSTRESN", "LBTESTCD"], "values": ["79.56", "79.55999999999999", "CREAT"]}, {"core_id": "CORE-000542", "message": "LBSTRESC is numeric but LBSTRESN is not populated or not equal to LBSTRESC.", "executability": "fully executable", "dataset": "lb.xpt", "USUBJID": "CDISC018", "row": 3465, "SEQ": 144, "variables": ["LBSTRESC", "LBSTRESN", "LBTESTCD"], "values": ["79.56", "79.55999999999999", "CREAT"]}, {"core_id": "CORE-000542", "message": "LBSTRESC is numeric but LBSTRESN is not populated or not equal to LBSTRESC.", "executability": "fully executable", "dataset": "lb.xpt", "USUBJID": "CDISC018", "row": 3471, "SEQ": 150, "variables": ["LBSTRESC", "LBSTRESN", "LBTESTCD"], "values": ["4.2", "4.199999999999999", "K"]}, {"core_id": "CORE-000542", "message": "LBSTRESC is numeric but LBSTRESN is not populated or not equal to LBSTRESC.", "executability": "fully executable", "dataset": "lb.xpt", "USUBJID": "CDISC018", "row": 3482, "SEQ": 161, "variables": ["LBSTRESC", "LBSTRESN", "LBTESTCD"], "values": ["166.544", "166.54399999999998", "URATE"]}, {"core_id": "CORE-000720", "message": "FTDTC is greater than RFPENDTC", "executability": "fully executable", "dataset": "ft.xpt", "USUBJID": "CDISC001", "row": 273, "SEQ": 273, "variables": ["FTDTC", "RFPENDTC"], "values": ["2013-05-20T12:00", "2013-05-20"]}, {"core_id": "CORE-000720", "message": "FTDTC is greater than RFPENDTC", "executability": "fully executable", "dataset": "ft.xpt", "USUBJID": "CDISC001", "row": 274, "SEQ": 274, "variables": ["FTDTC", "RFPENDTC"], "values": ["2013-05-20T12:00", "2013-05-20"]}, {"core_id": "CORE-000720", "message": "FTDTC is greater than RFPENDTC", "executability": "fully executable", "dataset": "ft.xpt", "USUBJID": "CDISC001", "row": 275, "SEQ": 275, "variables": ["FTDTC", "RFPENDTC"], "values": ["2013-05-20T12:00", "2013-05-20"]}, {"core_id": "CORE-000720", "message": "FTDTC is greater than RFPENDTC", "executability": "fully executable", "dataset": "ft.xpt", "USUBJID": "CDISC001", "row": 276, "SEQ": 276, "variables": ["FTDTC", "RFPENDTC"], "values": ["2013-05-20T12:00", "2013-05-20"]}, {"core_id": "CORE-000720", "message": "FTDTC is greater than RFPENDTC", "executability": "fully executable", "dataset": "ft.xpt", "USUBJID": "CDISC001", "row": 277, "SEQ": 277, "variables": ["FTDTC", "RFPENDTC"], "values": ["2013-05-20T12:00", "2013-05-20"]}, {"core_id": "CORE-000720", "message": "FTDTC is greater than RFPENDTC", "executability": "fully executable", "dataset": "ft.xpt", "USUBJID": "CDISC001", "row": 278, "SEQ": 278, "variables": ["FTDTC", "RFPENDTC"], "values": ["2013-05-20T12:00", "2013-05-20"]}, {"core_id": "CORE-000720", "message": "FTDTC is greater than RFPENDTC", "executability": "fully executable", "dataset": "ft.xpt", "USUBJID": "CDISC001", "row": 279, "SEQ": 279, "variables": ["FTDTC", "RFPENDTC"], "values": ["2013-05-20T12:00", "2013-05-20"]}, {"core_id": "CORE-000720", "message": "FTDTC is greater than RFPENDTC", "executability": "fully executable", "dataset": "ft.xpt", "USUBJID": "CDISC001", "row": 280, "SEQ": 280, "variables": ["FTDTC", "RFPENDTC"], "values": ["2013-05-20T12:00", "2013-05-20"]}, {"core_id": "CORE-000720", "message": "FTDTC is greater than RFPENDTC", "executability": "fully executable", "dataset": "ft.xpt", "USUBJID": "CDISC001", "row": 281, "SEQ": 281, "variables": ["FTDTC", "RFPENDTC"], "values": ["2013-05-20T12:00", "2013-05-20"]}, {"core_id": "CORE-000720", "message": "FTDTC is greater than RFPENDTC", "executability": "fully executable", "dataset": "ft.xpt", "USUBJID": "CDISC001", "row": 282, "SEQ": 282, "variables": ["FTDTC", "RFPENDTC"], "values": ["2013-05-20T12:00", "2013-05-20"]}, {"core_id": "CORE-000720", "message": "FTDTC is greater than RFPENDTC", "executability": "fully executable", "dataset": "ft.xpt", "USUBJID": "CDISC001", "row": 283, "SEQ": 283, "variables": ["FTDTC", "RFPENDTC"], "values": ["2013-05-20T12:00", "2013-05-20"]}, {"core_id": "CORE-000720", "message": "FTDTC is greater than RFPENDTC", "executability": "fully executable", "dataset": "ft.xpt", "USUBJID": "CDISC001", "row": 284, "SEQ": 284, "variables": ["FTDTC", "RFPENDTC"], "values": ["2013-05-20T12:00", "2013-05-20"]}, {"core_id": "CORE-000720", "message": "FTDTC is greater than RFPENDTC", "executability": "fully executable", "dataset": "ft.xpt", "USUBJID": "CDISC001", "row": 285, "SEQ": 285, "variables": ["FTDTC", "RFPENDTC"], "values": ["2013-05-20T12:00", "2013-05-20"]}, {"core_id": "CORE-000720", "message": "FTDTC is greater than RFPENDTC", "executability": "fully executable", "dataset": "ft.xpt", "USUBJID": "CDISC001", "row": 286, "SEQ": 286, "variables": ["FTDTC", "RFPENDTC"], "values": ["2013-05-20T12:00", "2013-05-20"]}, {"core_id": "CORE-000720", "message": "FTDTC is greater than RFPENDTC", "executability": "fully executable", "dataset": "ft.xpt", "USUBJID": "CDISC001", "row": 287, "SEQ": 287, "variables": ["FTDTC", "RFPENDTC"], "values": ["2013-05-20T12:00", "2013-05-20"]}, {"core_id": "CORE-000720", "message": "FTDTC is greater than RFPENDTC", "executability": "fully executable", "dataset": "ft.xpt", "USUBJID": "CDISC001", "row": 288, "SEQ": 288, "variables": ["FTDTC", "RFPENDTC"], "values": ["2013-05-20T12:00", "2013-05-20"]}, {"core_id": "CORE-000720", "message": "FTDTC is greater than RFPENDTC", "executability": "fully executable", "dataset": "ft.xpt", "USUBJID": "CDISC001", "row": 289, "SEQ": 289, "variables": ["FTDTC", "RFPENDTC"], "values": ["2013-05-20T12:00", "2013-05-20"]}, {"core_id": "CORE-000720", "message": "FTDTC is greater than RFPENDTC", "executability": "fully executable", "dataset": "ft.xpt", "USUBJID": "CDISC001", "row": 290, "SEQ": 290, "variables": ["FTDTC", "RFPENDTC"], "values": ["2013-05-20T12:05", "2013-05-20"]}, {"core_id": "CORE-000720", "message": "FTDTC is greater than RFPENDTC", "executability": "fully executable", "dataset": "ft.xpt", "USUBJID": "CDISC001", "row": 291, "SEQ": 291, "variables": ["FTDTC", "RFPENDTC"], "values": ["2013-05-20T12:05", "2013-05-20"]}, {"core_id": "CORE-000720", "message": "FTDTC is greater than RFPENDTC", "executability": "fully executable", "dataset": "ft.xpt", "USUBJID": "CDISC001", "row": 292, "SEQ": 292, "variables": ["FTDTC", "RFPENDTC"], "values": ["2013-05-20T12:05", "2013-05-20"]}, {"core_id": "CORE-000720", "message": "FTDTC is greater than RFPENDTC", "executability": "fully executable", "dataset": "ft.xpt", "USUBJID": "CDISC001", "row": 293, "SEQ": 293, "variables": ["FTDTC", "RFPENDTC"], "values": ["2013-05-20T12:05", "2013-05-20"]}, {"core_id": "CORE-000720", "message": "FTDTC is greater than RFPENDTC", "executability": "fully executable", "dataset": "ft.xpt", "USUBJID": "CDISC001", "row": 294, "SEQ": 294, "variables": ["FTDTC", "RFPENDTC"], "values": ["2013-05-20T12:05", "2013-05-20"]}, {"core_id": "CORE-000720", "message": "FTDTC is greater than RFPENDTC", "executability": "fully executable", "dataset": "ft.xpt", "USUBJID": "CDISC001", "row": 295, "SEQ": 295, "variables": ["FTDTC", "RFPENDTC"], "values": ["2013-05-20T12:05", "2013-05-20"]}, {"core_id": "CORE-000720", "message": "FTDTC is greater than RFPENDTC", "executability": "fully executable", "dataset": "ft.xpt", "USUBJID": "CDISC001", "row": 296, "SEQ": 296, "variables": ["FTDTC", "RFPENDTC"], "values": ["2013-05-20T12:05", "2013-05-20"]}, {"core_id": "CORE-000720", "message": "FTDTC is greater than RFPENDTC", "executability": "fully executable", "dataset": "ft.xpt", "USUBJID": "CDISC001", "row": 297, "SEQ": 297, "variables": ["FTDTC", "RFPENDTC"], "values": ["2013-05-20T12:05", "2013-05-20"]}, {"core_id": "CORE-000720", "message": "FTDTC is greater than RFPENDTC", "executability": "fully executable", "dataset": "ft.xpt", "USUBJID": "CDISC001", "row": 298, "SEQ": 298, "variables": ["FTDTC", "RFPENDTC"], "values": ["2013-05-20T12:05", "2013-05-20"]}, {"core_id": "CORE-000720", "message": "FTDTC is greater than RFPENDTC", "executability": "fully executable", "dataset": "ft.xpt", "USUBJID": "CDISC001", "row": 299, "SEQ": 299, "variables": ["FTDTC", "RFPENDTC"], "values": ["2013-05-20T12:05", "2013-05-20"]}, {"core_id": "CORE-000720", "message": "FTDTC is greater than RFPENDTC", "executability": "fully executable", "dataset": "ft.xpt", "USUBJID": "CDISC001", "row": 300, "SEQ": 300, "variables": ["FTDTC", "RFPENDTC"], "values": ["2013-05-20T12:05", "2013-05-20"]}, {"core_id": "CORE-000720", "message": "FTDTC is greater than RFPENDTC", "executability": "fully executable", "dataset": "ft.xpt", "USUBJID": "CDISC001", "row": 301, "SEQ": 301, "variables": ["FTDTC", "RFPENDTC"], "values": ["2013-05-20T12:05", "2013-05-20"]}, {"core_id": "CORE-000720", "message": "FTDTC is greater than RFPENDTC", "executability": "fully executable", "dataset": "ft.xpt", "USUBJID": "CDISC001", "row": 302, "SEQ": 302, "variables": ["FTDTC", "RFPENDTC"], "values": ["2013-05-20T12:05", "2013-05-20"]}, {"core_id": "CORE-000720", "message": "FTDTC is greater than RFPENDTC", "executability": "fully executable", "dataset": "ft.xpt", "USUBJID": "CDISC001", "row": 303, "SEQ": 303, "variables": ["FTDTC", "RFPENDTC"], "values": ["2013-05-20T12:05", "2013-05-20"]}, {"core_id": "CORE-000720", "message": "FTDTC is greater than RFPENDTC", "executability": "fully executable", "dataset": "ft.xpt", "USUBJID": "CDISC001", "row": 304, "SEQ": 304, "variables": ["FTDTC", "RFPENDTC"], "values": ["2013-05-20T12:05", "2013-05-20"]}, {"core_id": "CORE-000720", "message": "FTDTC is greater than RFPENDTC", "executability": "fully executable", "dataset": "ft.xpt", "USUBJID": "CDISC001", "row": 305, "SEQ": 305, "variables": ["FTDTC", "RFPENDTC"], "values": ["2013-05-20T12:05", "2013-05-20"]}, {"core_id": "CORE-000720", "message": "FTDTC is greater than RFPENDTC", "executability": "fully executable", "dataset": "ft.xpt", "USUBJID": "CDISC001", "row": 306, "SEQ": 306, "variables": ["FTDTC", "RFPENDTC"], "values": ["2013-05-20T12:05", "2013-05-20"]}, {"core_id": "CORE-000720", "message": "FTDTC is greater than RFPENDTC", "executability": "fully executable", "dataset": "ft.xpt", "USUBJID": "CDISC001", "row": 307, "SEQ": 307, "variables": ["FTDTC", "RFPENDTC"], "values": ["2013-05-20T12:10", "2013-05-20"]}, {"core_id": "CORE-000720", "message": "FTDTC is greater than RFPENDTC", "executability": "fully executable", "dataset": "ft.xpt", "USUBJID": "CDISC001", "row": 308, "SEQ": 308, "variables": ["FTDTC", "RFPENDTC"], "values": ["2013-05-20T12:10", "2013-05-20"]}, {"core_id": "CORE-000720", "message": "FTDTC is greater than RFPENDTC", "executability": "fully executable", "dataset": "ft.xpt", "USUBJID": "CDISC001", "row": 309, "SEQ": 309, "variables": ["FTDTC", "RFPENDTC"], "values": ["2013-05-20T12:10", "2013-05-20"]}, {"core_id": "CORE-000720", "message": "FTDTC is greater than RFPENDTC", "executability": "fully executable", "dataset": "ft.xpt", "USUBJID": "CDISC001", "row": 310, "SEQ": 310, "variables": ["FTDTC", "RFPENDTC"], "values": ["2013-05-20T12:10", "2013-05-20"]}, {"core_id": "CORE-000720", "message": "FTDTC is greater than RFPENDTC", "executability": "fully executable", "dataset": "ft.xpt", "USUBJID": "CDISC001", "row": 311, "SEQ": 311, "variables": ["FTDTC", "RFPENDTC"], "values": ["2013-05-20T12:10", "2013-05-20"]}, {"core_id": "CORE-000720", "message": "FTDTC is greater than RFPENDTC", "executability": "fully executable", "dataset": "ft.xpt", "USUBJID": "CDISC001", "row": 312, "SEQ": 312, "variables": ["FTDTC", "RFPENDTC"], "values": ["2013-05-20T12:10", "2013-05-20"]}, {"core_id": "CORE-000720", "message": "FTDTC is greater than RFPENDTC", "executability": "fully executable", "dataset": "ft.xpt", "USUBJID": "CDISC001", "row": 313, "SEQ": 313, "variables": ["FTDTC", "RFPENDTC"], "values": ["2013-05-20T12:10", "2013-05-20"]}, {"core_id": "CORE-000720", "message": "FTDTC is greater than RFPENDTC", "executability": "fully executable", "dataset": "ft.xpt", "USUBJID": "CDISC001", "row": 314, "SEQ": 314, "variables": ["FTDTC", "RFPENDTC"], "values": ["2013-05-20T12:10", "2013-05-20"]}, {"core_id": "CORE-000720", "message": "FTDTC is greater than RFPENDTC", "executability": "fully executable", "dataset": "ft.xpt", "USUBJID": "CDISC001", "row": 315, "SEQ": 315, "variables": ["FTDTC", "RFPENDTC"], "values": ["2013-05-20T12:10", "2013-05-20"]}, {"core_id": "CORE-000720", "message": "FTDTC is greater than RFPENDTC", "executability": "fully executable", "dataset": "ft.xpt", "USUBJID": "CDISC001", "row": 316, "SEQ": 316, "variables": ["FTDTC", "RFPENDTC"], "values": ["2013-05-20T12:10", "2013-05-20"]}, {"core_id": "CORE-000720", "message": "FTDTC is greater than RFPENDTC", "executability": "fully executable", "dataset": "ft.xpt", "USUBJID": "CDISC001", "row": 317, "SEQ": 317, "variables": ["FTDTC", "RFPENDTC"], "values": ["2013-05-20T12:10", "2013-05-20"]}, {"core_id": "CORE-000720", "message": "FTDTC is greater than RFPENDTC", "executability": "fully executable", "dataset": "ft.xpt", "USUBJID": "CDISC001", "row": 318, "SEQ": 318, "variables": ["FTDTC", "RFPENDTC"], "values": ["2013-05-20T12:10", "2013-05-20"]}, {"core_id": "CORE-000720", "message": "FTDTC is greater than RFPENDTC", "executability": "fully executable", "dataset": "ft.xpt", "USUBJID": "CDISC001", "row": 319, "SEQ": 319, "variables": ["FTDTC", "RFPENDTC"], "values": ["2013-05-20T12:10", "2013-05-20"]}, {"core_id": "CORE-000720", "message": "FTDTC is greater than RFPENDTC", "executability": "fully executable", "dataset": "ft.xpt", "USUBJID": "CDISC001", "row": 320, "SEQ": 320, "variables": ["FTDTC", "RFPENDTC"], "values": ["2013-05-20T12:10", "2013-05-20"]}, {"core_id": "CORE-000720", "message": "FTDTC is greater than RFPENDTC", "executability": "fully executable", "dataset": "ft.xpt", "USUBJID": "CDISC001", "row": 321, "SEQ": 321, "variables": ["FTDTC", "RFPENDTC"], "values": ["2013-05-20T12:10", "2013-05-20"]}, {"core_id": "CORE-000720", "message": "FTDTC is greater than RFPENDTC", "executability": "fully executable", "dataset": "ft.xpt", "USUBJID": "CDISC001", "row": 322, "SEQ": 322, "variables": ["FTDTC", "RFPENDTC"], "values": ["2013-05-20T12:10", "2013-05-20"]}, {"core_id": "CORE-000720", "message": "FTDTC is greater than RFPENDTC", "executability": "fully executable", "dataset": "ft.xpt", "USUBJID": "CDISC001", "row": 323, "SEQ": 323, "variables": ["FTDTC", "RFPENDTC"], "values": ["2013-05-20T12:10", "2013-05-20"]}, {"core_id": "CORE-000720", "message": "FTDTC is greater than RFPENDTC", "executability": "fully executable", "dataset": "ft.xpt", "USUBJID": "CDISC001", "row": 324, "SEQ": 324, "variables": ["FTDTC", "RFPENDTC"], "values": ["2013-05-20T12:15", "2013-05-20"]}, {"core_id": "CORE-000720", "message": "FTDTC is greater than RFPENDTC", "executability": "fully executable", "dataset": "ft.xpt", "USUBJID": "CDISC001", "row": 325, "SEQ": 325, "variables": ["FTDTC", "RFPENDTC"], "values": ["2013-05-20T12:15", "2013-05-20"]}, {"core_id": "CORE-000720", "message": "FTDTC is greater than RFPENDTC", "executability": "fully executable", "dataset": "ft.xpt", "USUBJID": "CDISC001", "row": 326, "SEQ": 326, "variables": ["FTDTC", "RFPENDTC"], "values": ["2013-05-20T12:15", "2013-05-20"]}, {"core_id": "CORE-000720", "message": "FTDTC is greater than RFPENDTC", "executability": "fully executable", "dataset": "ft.xpt", "USUBJID": "CDISC001", "row": 327, "SEQ": 327, "variables": ["FTDTC", "RFPENDTC"], "values": ["2013-05-20T12:15", "2013-05-20"]}, {"core_id": "CORE-000720", "message": "FTDTC is greater than RFPENDTC", "executability": "fully executable", "dataset": "ft.xpt", "USUBJID": "CDISC001", "row": 328, "SEQ": 328, "variables": ["FTDTC", "RFPENDTC"], "values": ["2013-05-20T12:15", "2013-05-20"]}, {"core_id": "CORE-000720", "message": "FTDTC is greater than RFPENDTC", "executability": "fully executable", "dataset": "ft.xpt", "USUBJID": "CDISC001", "row": 329, "SEQ": 329, "variables": ["FTDTC", "RFPENDTC"], "values": ["2013-05-20T12:15", "2013-05-20"]}, {"core_id": "CORE-000720", "message": "FTDTC is greater than RFPENDTC", "executability": "fully executable", "dataset": "ft.xpt", "USUBJID": "CDISC001", "row": 330, "SEQ": 330, "variables": ["FTDTC", "RFPENDTC"], "values": ["2013-05-20T12:15", "2013-05-20"]}, {"core_id": "CORE-000720", "message": "FTDTC is greater than RFPENDTC", "executability": "fully executable", "dataset": "ft.xpt", "USUBJID": "CDISC001", "row": 331, "SEQ": 331, "variables": ["FTDTC", "RFPENDTC"], "values": ["2013-05-20T12:15", "2013-05-20"]}, {"core_id": "CORE-000720", "message": "FTDTC is greater than RFPENDTC", "executability": "fully executable", "dataset": "ft.xpt", "USUBJID": "CDISC001", "row": 332, "SEQ": 332, "variables": ["FTDTC", "RFPENDTC"], "values": ["2013-05-20T12:15", "2013-05-20"]}, {"core_id": "CORE-000720", "message": "FTDTC is greater than RFPENDTC", "executability": "fully executable", "dataset": "ft.xpt", "USUBJID": "CDISC001", "row": 333, "SEQ": 333, "variables": ["FTDTC", "RFPENDTC"], "values": ["2013-05-20T12:15", "2013-05-20"]}, {"core_id": "CORE-000720", "message": "FTDTC is greater than RFPENDTC", "executability": "fully executable", "dataset": "ft.xpt", "USUBJID": "CDISC001", "row": 334, "SEQ": 334, "variables": ["FTDTC", "RFPENDTC"], "values": ["2013-05-20T12:15", "2013-05-20"]}, {"core_id": "CORE-000720", "message": "FTDTC is greater than RFPENDTC", "executability": "fully executable", "dataset": "ft.xpt", "USUBJID": "CDISC001", "row": 335, "SEQ": 335, "variables": ["FTDTC", "RFPENDTC"], "values": ["2013-05-20T12:15", "2013-05-20"]}, {"core_id": "CORE-000720", "message": "FTDTC is greater than RFPENDTC", "executability": "fully executable", "dataset": "ft.xpt", "USUBJID": "CDISC001", "row": 336, "SEQ": 336, "variables": ["FTDTC", "RFPENDTC"], "values": ["2013-05-20T12:15", "2013-05-20"]}, {"core_id": "CORE-000720", "message": "FTDTC is greater than RFPENDTC", "executability": "fully executable", "dataset": "ft.xpt", "USUBJID": "CDISC001", "row": 337, "SEQ": 337, "variables": ["FTDTC", "RFPENDTC"], "values": ["2013-05-20T12:15", "2013-05-20"]}, {"core_id": "CORE-000720", "message": "FTDTC is greater than RFPENDTC", "executability": "fully executable", "dataset": "ft.xpt", "USUBJID": "CDISC001", "row": 338, "SEQ": 338, "variables": ["FTDTC", "RFPENDTC"], "values": ["2013-05-20T12:15", "2013-05-20"]}, {"core_id": "CORE-000720", "message": "FTDTC is greater than RFPENDTC", "executability": "fully executable", "dataset": "ft.xpt", "USUBJID": "CDISC001", "row": 339, "SEQ": 339, "variables": ["FTDTC", "RFPENDTC"], "values": ["2013-05-20T12:15", "2013-05-20"]}, {"core_id": "CORE-000720", "message": "FTDTC is greater than RFPENDTC", "executability": "fully executable", "dataset": "ft.xpt", "USUBJID": "CDISC001", "row": 340, "SEQ": 340, "variables": ["FTDTC", "RFPENDTC"], "values": ["2013-05-20T12:15", "2013-05-20"]}, {"core_id": "CORE-000720", "message": "FTDTC is greater than RFPENDTC", "executability": "fully executable", "dataset": "ft.xpt", "USUBJID": "CDISC001", "row": 341, "SEQ": 341, "variables": ["FTDTC", "RFPENDTC"], "values": ["2013-05-20T12:20", "2013-05-20"]}, {"core_id": "CORE-000720", "message": "FTDTC is greater than RFPENDTC", "executability": "fully executable", "dataset": "ft.xpt", "USUBJID": "CDISC001", "row": 342, "SEQ": 342, "variables": ["FTDTC", "RFPENDTC"], "values": ["2013-05-20T12:20", "2013-05-20"]}, {"core_id": "CORE-000720", "message": "FTDTC is greater than RFPENDTC", "executability": "fully executable", "dataset": "ft.xpt", "USUBJID": "CDISC001", "row": 343, "SEQ": 343, "variables": ["FTDTC", "RFPENDTC"], "values": ["2013-05-20T12:20", "2013-05-20"]}, {"core_id": "CORE-000720", "message": "FTDTC is greater than RFPENDTC", "executability": "fully executable", "dataset": "ft.xpt", "USUBJID": "CDISC001", "row": 344, "SEQ": 344, "variables": ["FTDTC", "RFPENDTC"], "values": ["2013-05-20T12:20", "2013-05-20"]}, {"core_id": "CORE-000720", "message": "FTDTC is greater than RFPENDTC", "executability": "fully executable", "dataset": "ft.xpt", "USUBJID": "CDISC001", "row": 345, "SEQ": 345, "variables": ["FTDTC", "RFPENDTC"], "values": ["2013-05-20T12:20", "2013-05-20"]}, {"core_id": "CORE-000720", "message": "FTDTC is greater than RFPENDTC", "executability": "fully executable", "dataset": "ft.xpt", "USUBJID": "CDISC001", "row": 346, "SEQ": 346, "variables": ["FTDTC", "RFPENDTC"], "values": ["2013-05-20T12:20", "2013-05-20"]}, {"core_id": "CORE-000720", "message": "FTDTC is greater than RFPENDTC", "executability": "fully executable", "dataset": "ft.xpt", "USUBJID": "CDISC001", "row": 347, "SEQ": 347, "variables": ["FTDTC", "RFPENDTC"], "values": ["2013-05-20T12:20", "2013-05-20"]}, {"core_id": "CORE-000720", "message": "FTDTC is greater than RFPENDTC", "executability": "fully executable", "dataset": "ft.xpt", "USUBJID": "CDISC001", "row": 348, "SEQ": 348, "variables": ["FTDTC", "RFPENDTC"], "values": ["2013-05-20T12:20", "2013-05-20"]}, {"core_id": "CORE-000720", "message": "FTDTC is greater than RFPENDTC", "executability": "fully executable", "dataset": "ft.xpt", "USUBJID": "CDISC001", "row": 349, "SEQ": 349, "variables": ["FTDTC", "RFPENDTC"], "values": ["2013-05-20T12:20", "2013-05-20"]}, {"core_id": "CORE-000720", "message": "FTDTC is greater than RFPENDTC", "executability": "fully executable", "dataset": "ft.xpt", "USUBJID": "CDISC001", "row": 350, "SEQ": 350, "variables": ["FTDTC", "RFPENDTC"], "values": ["2013-05-20T12:20", "2013-05-20"]}, {"core_id": "CORE-000720", "message": "FTDTC is greater than RFPENDTC", "executability": "fully executable", "dataset": "ft.xpt", "USUBJID": "CDISC001", "row": 351, "SEQ": 351, "variables": ["FTDTC", "RFPENDTC"], "values": ["2013-05-20T12:20", "2013-05-20"]}, {"core_id": "CORE-000720", "message": "FTDTC is greater than RFPENDTC", "executability": "fully executable", "dataset": "ft.xpt", "USUBJID": "CDISC001", "row": 352, "SEQ": 352, "variables": ["FTDTC", "RFPENDTC"], "values": ["2013-05-20T12:20", "2013-05-20"]}, {"core_id": "CORE-000720", "message": "FTDTC is greater than RFPENDTC", "executability": "fully executable", "dataset": "ft.xpt", "USUBJID": "CDISC001", "row": 353, "SEQ": 353, "variables": ["FTDTC", "RFPENDTC"], "values": ["2013-05-20T12:20", "2013-05-20"]}, {"core_id": "CORE-000720", "message": "FTDTC is greater than RFPENDTC", "executability": "fully executable", "dataset": "ft.xpt", "USUBJID": "CDISC001", "row": 354, "SEQ": 354, "variables": ["FTDTC", "RFPENDTC"], "values": ["2013-05-20T12:20", "2013-05-20"]}, {"core_id": "CORE-000720", "message": "FTDTC is greater than RFPENDTC", "executability": "fully executable", "dataset": "ft.xpt", "USUBJID": "CDISC001", "row": 355, "SEQ": 355, "variables": ["FTDTC", "RFPENDTC"], "values": ["2013-05-20T12:20", "2013-05-20"]}, {"core_id": "CORE-000720", "message": "FTDTC is greater than RFPENDTC", "executability": "fully executable", "dataset": "ft.xpt", "USUBJID": "CDISC001", "row": 356, "SEQ": 356, "variables": ["FTDTC", "RFPENDTC"], "values": ["2013-05-20T12:20", "2013-05-20"]}, {"core_id": "CORE-000720", "message": "FTDTC is greater than RFPENDTC", "executability": "fully executable", "dataset": "ft.xpt", "USUBJID": "CDISC001", "row": 357, "SEQ": 357, "variables": ["FTDTC", "RFPENDTC"], "values": ["2013-05-20T12:20", "2013-05-20"]}, {"core_id": "CORE-000720", "message": "FTDTC is greater than RFPENDTC", "executability": "fully executable", "dataset": "ft.xpt", "USUBJID": "CDISC001", "row": 358, "SEQ": 358, "variables": ["FTDTC", "RFPENDTC"], "values": ["2013-05-20T12:25", "2013-05-20"]}, {"core_id": "CORE-000720", "message": "FTDTC is greater than RFPENDTC", "executability": "fully executable", "dataset": "ft.xpt", "USUBJID": "CDISC001", "row": 359, "SEQ": 359, "variables": ["FTDTC", "RFPENDTC"], "values": ["2013-05-20T12:25", "2013-05-20"]}, {"core_id": "CORE-000720", "message": "FTDTC is greater than RFPENDTC", "executability": "fully executable", "dataset": "ft.xpt", "USUBJID": "CDISC001", "row": 360, "SEQ": 360, "variables": ["FTDTC", "RFPENDTC"], "values": ["2013-05-20T12:25", "2013-05-20"]}, {"core_id": "CORE-000720", "message": "FTDTC is greater than RFPENDTC", "executability": "fully executable", "dataset": "ft.xpt", "USUBJID": "CDISC001", "row": 361, "SEQ": 361, "variables": ["FTDTC", "RFPENDTC"], "values": ["2013-05-20T12:25", "2013-05-20"]}, {"core_id": "CORE-000720", "message": "FTDTC is greater than RFPENDTC", "executability": "fully executable", "dataset": "ft.xpt", "USUBJID": "CDISC001", "row": 362, "SEQ": 362, "variables": ["FTDTC", "RFPENDTC"], "values": ["2013-05-20T12:25", "2013-05-20"]}, {"core_id": "CORE-000720", "message": "FTDTC is greater than RFPENDTC", "executability": "fully executable", "dataset": "ft.xpt", "USUBJID": "CDISC001", "row": 363, "SEQ": 363, "variables": ["FTDTC", "RFPENDTC"], "values": ["2013-05-20T12:25", "2013-05-20"]}, {"core_id": "CORE-000720", "message": "FTDTC is greater than RFPENDTC", "executability": "fully executable", "dataset": "ft.xpt", "USUBJID": "CDISC001", "row": 364, "SEQ": 364, "variables": ["FTDTC", "RFPENDTC"], "values": ["2013-05-20T12:25", "2013-05-20"]}, {"core_id": "CORE-000720", "message": "FTDTC is greater than RFPENDTC", "executability": "fully executable", "dataset": "ft.xpt", "USUBJID": "CDISC001", "row": 365, "SEQ": 365, "variables": ["FTDTC", "RFPENDTC"], "values": ["2013-05-20T12:25", "2013-05-20"]}, {"core_id": "CORE-000720", "message": "FTDTC is greater than RFPENDTC", "executability": "fully executable", "dataset": "ft.xpt", "USUBJID": "CDISC001", "row": 366, "SEQ": 366, "variables": ["FTDTC", "RFPENDTC"], "values": ["2013-05-20T12:25", "2013-05-20"]}, {"core_id": "CORE-000720", "message": "FTDTC is greater than RFPENDTC", "executability": "fully executable", "dataset": "ft.xpt", "USUBJID": "CDISC001", "row": 367, "SEQ": 367, "variables": ["FTDTC", "RFPENDTC"], "values": ["2013-05-20T12:25", "2013-05-20"]}, {"core_id": "CORE-000720", "message": "FTDTC is greater than RFPENDTC", "executability": "fully executable", "dataset": "ft.xpt", "USUBJID": "CDISC001", "row": 368, "SEQ": 368, "variables": ["FTDTC", "RFPENDTC"], "values": ["2013-05-20T12:25", "2013-05-20"]}, {"core_id": "CORE-000720", "message": "FTDTC is greater than RFPENDTC", "executability": "fully executable", "dataset": "ft.xpt", "USUBJID": "CDISC001", "row": 369, "SEQ": 369, "variables": ["FTDTC", "RFPENDTC"], "values": ["2013-05-20T12:25", "2013-05-20"]}, {"core_id": "CORE-000720", "message": "FTDTC is greater than RFPENDTC", "executability": "fully executable", "dataset": "ft.xpt", "USUBJID": "CDISC001", "row": 370, "SEQ": 370, "variables": ["FTDTC", "RFPENDTC"], "values": ["2013-05-20T12:25", "2013-05-20"]}, {"core_id": "CORE-000720", "message": "FTDTC is greater than RFPENDTC", "executability": "fully executable", "dataset": "ft.xpt", "USUBJID": "CDISC001", "row": 371, "SEQ": 371, "variables": ["FTDTC", "RFPENDTC"], "values": ["2013-05-20T12:25", "2013-05-20"]}, {"core_id": "CORE-000720", "message": "FTDTC is greater than RFPENDTC", "executability": "fully executable", "dataset": "ft.xpt", "USUBJID": "CDISC001", "row": 372, "SEQ": 372, "variables": ["FTDTC", "RFPENDTC"], "values": ["2013-05-20T12:25", "2013-05-20"]}, {"core_id": "CORE-000720", "message": "FTDTC is greater than RFPENDTC", "executability": "fully executable", "dataset": "ft.xpt", "USUBJID": "CDISC001", "row": 373, "SEQ": 373, "variables": ["FTDTC", "RFPENDTC"], "values": ["2013-05-20T12:25", "2013-05-20"]}, {"core_id": "CORE-000720", "message": "FTDTC is greater than RFPENDTC", "executability": "fully executable", "dataset": "ft.xpt", "USUBJID": "CDISC001", "row": 374, "SEQ": 374, "variables": ["FTDTC", "RFPENDTC"], "values": ["2013-05-20T12:25", "2013-05-20"]}, {"core_id": "CORE-000720", "message": "FTDTC is greater than RFPENDTC", "executability": "fully executable", "dataset": "ft.xpt", "USUBJID": "CDISC001", "row": 375, "SEQ": 375, "variables": ["FTDTC", "RFPENDTC"], "values": ["2013-05-20T12:30", "2013-05-20"]}, {"core_id": "CORE-000720", "message": "FTDTC is greater than RFPENDTC", "executability": "fully executable", "dataset": "ft.xpt", "USUBJID": "CDISC001", "row": 376, "SEQ": 376, "variables": ["FTDTC", "RFPENDTC"], "values": ["2013-05-20T12:30", "2013-05-20"]}, {"core_id": "CORE-000720", "message": "FTDTC is greater than RFPENDTC", "executability": "fully executable", "dataset": "ft.xpt", "USUBJID": "CDISC001", "row": 377, "SEQ": 377, "variables": ["FTDTC", "RFPENDTC"], "values": ["2013-05-20T12:30", "2013-05-20"]}, {"core_id": "CORE-000720", "message": "FTDTC is greater than RFPENDTC", "executability": "fully executable", "dataset": "ft.xpt", "USUBJID": "CDISC001", "row": 378, "SEQ": 378, "variables": ["FTDTC", "RFPENDTC"], "values": ["2013-05-20T12:30", "2013-05-20"]}, {"core_id": "CORE-000720", "message": "FTDTC is greater than RFPENDTC", "executability": "fully executable", "dataset": "ft.xpt", "USUBJID": "CDISC001", "row": 379, "SEQ": 379, "variables": ["FTDTC", "RFPENDTC"], "values": ["2013-05-20T12:30", "2013-05-20"]}, {"core_id": "CORE-000720", "message": "FTDTC is greater than RFPENDTC", "executability": "fully executable", "dataset": "ft.xpt", "USUBJID": "CDISC001", "row": 380, "SEQ": 380, "variables": ["FTDTC", "RFPENDTC"], "values": ["2013-05-20T12:30", "2013-05-20"]}, {"core_id": "CORE-000720", "message": "FTDTC is greater than RFPENDTC", "executability": "fully executable", "dataset": "ft.xpt", "USUBJID": "CDISC001", "row": 381, "SEQ": 381, "variables": ["FTDTC", "RFPENDTC"], "values": ["2013-05-20T12:30", "2013-05-20"]}, {"core_id": "CORE-000720", "message": "FTDTC is greater than RFPENDTC", "executability": "fully executable", "dataset": "ft.xpt", "USUBJID": "CDISC001", "row": 382, "SEQ": 382, "variables": ["FTDTC", "RFPENDTC"], "values": ["2013-05-20T12:30", "2013-05-20"]}, {"core_id": "CORE-000720", "message": "FTDTC is greater than RFPENDTC", "executability": "fully executable", "dataset": "ft.xpt", "USUBJID": "CDISC001", "row": 383, "SEQ": 383, "variables": ["FTDTC", "RFPENDTC"], "values": ["2013-05-20T12:30", "2013-05-20"]}, {"core_id": "CORE-000720", "message": "FTDTC is greater than RFPENDTC", "executability": "fully executable", "dataset": "ft.xpt", "USUBJID": "CDISC001", "row": 384, "SEQ": 384, "variables": ["FTDTC", "RFPENDTC"], "values": ["2013-05-20T12:30", "2013-05-20"]}, {"core_id": "CORE-000720", "message": "FTDTC is greater than RFPENDTC", "executability": "fully executable", "dataset": "ft.xpt", "USUBJID": "CDISC001", "row": 385, "SEQ": 385, "variables": ["FTDTC", "RFPENDTC"], "values": ["2013-05-20T12:30", "2013-05-20"]}, {"core_id": "CORE-000720", "message": "FTDTC is greater than RFPENDTC", "executability": "fully executable", "dataset": "ft.xpt", "USUBJID": "CDISC001", "row": 386, "SEQ": 386, "variables": ["FTDTC", "RFPENDTC"], "values": ["2013-05-20T12:30", "2013-05-20"]}, {"core_id": "CORE-000720", "message": "FTDTC is greater than RFPENDTC", "executability": "fully executable", "dataset": "ft.xpt", "USUBJID": "CDISC001", "row": 387, "SEQ": 387, "variables": ["FTDTC", "RFPENDTC"], "values": ["2013-05-20T12:30", "2013-05-20"]}, {"core_id": "CORE-000720", "message": "FTDTC is greater than RFPENDTC", "executability": "fully executable", "dataset": "ft.xpt", "USUBJID": "CDISC001", "row": 388, "SEQ": 388, "variables": ["FTDTC", "RFPENDTC"], "values": ["2013-05-20T12:30", "2013-05-20"]}, {"core_id": "CORE-000720", "message": "FTDTC is greater than RFPENDTC", "executability": "fully executable", "dataset": "ft.xpt", "USUBJID": "CDISC001", "row": 389, "SEQ": 389, "variables": ["FTDTC", "RFPENDTC"], "values": ["2013-05-20T12:30", "2013-05-20"]}, {"core_id": "CORE-000720", "message": "FTDTC is greater than RFPENDTC", "executability": "fully executable", "dataset": "ft.xpt", "USUBJID": "CDISC001", "row": 390, "SEQ": 390, "variables": ["FTDTC", "RFPENDTC"], "values": ["2013-05-20T12:30", "2013-05-20"]}, {"core_id": "CORE-000720", "message": "FTDTC is greater than RFPENDTC", "executability": "fully executable", "dataset": "ft.xpt", "USUBJID": "CDISC001", "row": 391, "SEQ": 391, "variables": ["FTDTC", "RFPENDTC"], "values": ["2013-05-20T12:30", "2013-05-20"]}, {"core_id": "CORE-000720", "message": "FTDTC is greater than RFPENDTC", "executability": "fully executable", "dataset": "ft.xpt", "USUBJID": "CDISC001", "row": 392, "SEQ": 392, "variables": ["FTDTC", "RFPENDTC"], "values": ["2013-05-20T13:00", "2013-05-20"]}, {"core_id": "CORE-000720", "message": "FTDTC is greater than RFPENDTC", "executability": "fully executable", "dataset": "ft.xpt", "USUBJID": "CDISC001", "row": 393, "SEQ": 393, "variables": ["FTDTC", "RFPENDTC"], "values": ["2013-05-20T13:00", "2013-05-20"]}, {"core_id": "CORE-000720", "message": "FTDTC is greater than RFPENDTC", "executability": "fully executable", "dataset": "ft.xpt", "USUBJID": "CDISC001", "row": 394, "SEQ": 394, "variables": ["FTDTC", "RFPENDTC"], "values": ["2013-05-20T13:00", "2013-05-20"]}, {"core_id": "CORE-000720", "message": "FTDTC is greater than RFPENDTC", "executability": "fully executable", "dataset": "ft.xpt", "USUBJID": "CDISC001", "row": 395, "SEQ": 395, "variables": ["FTDTC", "RFPENDTC"], "values": ["2013-05-20T13:00", "2013-05-20"]}, {"core_id": "CORE-000720", "message": "FTDTC is greater than RFPENDTC", "executability": "fully executable", "dataset": "ft.xpt", "USUBJID": "CDISC001", "row": 396, "SEQ": 396, "variables": ["FTDTC", "RFPENDTC"], "values": ["2013-05-20T13:00", "2013-05-20"]}, {"core_id": "CORE-000720", "message": "FTDTC is greater than RFPENDTC", "executability": "fully executable", "dataset": "ft.xpt", "USUBJID": "CDISC001", "row": 397, "SEQ": 397, "variables": ["FTDTC", "RFPENDTC"], "values": ["2013-05-20T13:00", "2013-05-20"]}, {"core_id": "CORE-000720", "message": "FTDTC is greater than RFPENDTC", "executability": "fully executable", "dataset": "ft.xpt", "USUBJID": "CDISC001", "row": 398, "SEQ": 398, "variables": ["FTDTC", "RFPENDTC"], "values": ["2013-05-20T13:00", "2013-05-20"]}, {"core_id": "CORE-000720", "message": "FTDTC is greater than RFPENDTC", "executability": "fully executable", "dataset": "ft.xpt", "USUBJID": "CDISC001", "row": 399, "SEQ": 399, "variables": ["FTDTC", "RFPENDTC"], "values": ["2013-05-20T13:00", "2013-05-20"]}, {"core_id": "CORE-000720", "message": "FTDTC is greater than RFPENDTC", "executability": "fully executable", "dataset": "ft.xpt", "USUBJID": "CDISC001", "row": 400, "SEQ": 400, "variables": ["FTDTC", "RFPENDTC"], "values": ["2013-05-20T13:00", "2013-05-20"]}, {"core_id": "CORE-000720", "message": "FTDTC is greater than RFPENDTC", "executability": "fully executable", "dataset": "ft.xpt", "USUBJID": "CDISC001", "row": 401, "SEQ": 401, "variables": ["FTDTC", "RFPENDTC"], "values": ["2013-05-20T13:00", "2013-05-20"]}, {"core_id": "CORE-000720", "message": "FTDTC is greater than RFPENDTC", "executability": "fully executable", "dataset": "ft.xpt", "USUBJID": "CDISC001", "row": 402, "SEQ": 402, "variables": ["FTDTC", "RFPENDTC"], "values": ["2013-05-20T13:00", "2013-05-20"]}, {"core_id": "CORE-000720", "message": "FTDTC is greater than RFPENDTC", "executability": "fully executable", "dataset": "ft.xpt", "USUBJID": "CDISC001", "row": 403, "SEQ": 403, "variables": ["FTDTC", "RFPENDTC"], "values": ["2013-05-20T13:00", "2013-05-20"]}, {"core_id": "CORE-000720", "message": "FTDTC is greater than RFPENDTC", "executability": "fully executable", "dataset": "ft.xpt", "USUBJID": "CDISC001", "row": 404, "SEQ": 404, "variables": ["FTDTC", "RFPENDTC"], "values": ["2013-05-20T13:00", "2013-05-20"]}, {"core_id": "CORE-000720", "message": "FTDTC is greater than RFPENDTC", "executability": "fully executable", "dataset": "ft.xpt", "USUBJID": "CDISC001", "row": 405, "SEQ": 405, "variables": ["FTDTC", "RFPENDTC"], "values": ["2013-05-20T13:00", "2013-05-20"]}, {"core_id": "CORE-000720", "message": "FTDTC is greater than RFPENDTC", "executability": "fully executable", "dataset": "ft.xpt", "USUBJID": "CDISC001", "row": 406, "SEQ": 406, "variables": ["FTDTC", "RFPENDTC"], "values": ["2013-05-20T13:00", "2013-05-20"]}, {"core_id": "CORE-000720", "message": "FTDTC is greater than RFPENDTC", "executability": "fully executable", "dataset": "ft.xpt", "USUBJID": "CDISC001", "row": 407, "SEQ": 407, "variables": ["FTDTC", "RFPENDTC"], "values": ["2013-05-20T13:00", "2013-05-20"]}, {"core_id": "CORE-000720", "message": "FTDTC is greater than RFPENDTC", "executability": "fully executable", "dataset": "ft.xpt", "USUBJID": "CDISC001", "row": 408, "SEQ": 408, "variables": ["FTDTC", "RFPENDTC"], "values": ["2013-05-20T13:00", "2013-05-20"]}, {"core_id": "CORE-000720", "message": "FTDTC is greater than RFPENDTC", "executability": "fully executable", "dataset": "ft.xpt", "USUBJID": "CDISC003", "row": 1089, "SEQ": 409, "variables": ["FTDTC", "RFPENDTC"], "values": ["2014-02-13T13:00", "2014-02-13"]}, {"core_id": "CORE-000720", "message": "FTDTC is greater than RFPENDTC", "executability": "fully executable", "dataset": "ft.xpt", "USUBJID": "CDISC003", "row": 1090, "SEQ": 410, "variables": ["FTDTC", "RFPENDTC"], "values": ["2014-02-13T13:00", "2014-02-13"]}, {"core_id": "CORE-000720", "message": "FTDTC is greater than RFPENDTC", "executability": "fully executable", "dataset": "ft.xpt", "USUBJID": "CDISC003", "row": 1091, "SEQ": 411, "variables": ["FTDTC", "RFPENDTC"], "values": ["2014-02-13T13:00", "2014-02-13"]}, {"core_id": "CORE-000720", "message": "FTDTC is greater than RFPENDTC", "executability": "fully executable", "dataset": "ft.xpt", "USUBJID": "CDISC003", "row": 1092, "SEQ": 412, "variables": ["FTDTC", "RFPENDTC"], "values": ["2014-02-13T13:00", "2014-02-13"]}, {"core_id": "CORE-000720", "message": "FTDTC is greater than RFPENDTC", "executability": "fully executable", "dataset": "ft.xpt", "USUBJID": "CDISC003", "row": 1093, "SEQ": 413, "variables": ["FTDTC", "RFPENDTC"], "values": ["2014-02-13T13:00", "2014-02-13"]}, {"core_id": "CORE-000720", "message": "FTDTC is greater than RFPENDTC", "executability": "fully executable", "dataset": "ft.xpt", "USUBJID": "CDISC003", "row": 1094, "SEQ": 414, "variables": ["FTDTC", "RFPENDTC"], "values": ["2014-02-13T13:00", "2014-02-13"]}, {"core_id": "CORE-000720", "message": "FTDTC is greater than RFPENDTC", "executability": "fully executable", "dataset": "ft.xpt", "USUBJID": "CDISC003", "row": 1095, "SEQ": 415, "variables": ["FTDTC", "RFPENDTC"], "values": ["2014-02-13T13:00", "2014-02-13"]}, {"core_id": "CORE-000720", "message": "FTDTC is greater than RFPENDTC", "executability": "fully executable", "dataset": "ft.xpt", "USUBJID": "CDISC003", "row": 1096, "SEQ": 416, "variables": ["FTDTC", "RFPENDTC"], "values": ["2014-02-13T13:00", "2014-02-13"]}, {"core_id": "CORE-000720", "message": "FTDTC is greater than RFPENDTC", "executability": "fully executable", "dataset": "ft.xpt", "USUBJID": "CDISC003", "row": 1097, "SEQ": 417, "variables": ["FTDTC", "RFPENDTC"], "values": ["2014-02-13T13:00", "2014-02-13"]}, {"core_id": "CORE-000720", "message": "FTDTC is greater than RFPENDTC", "executability": "fully executable", "dataset": "ft.xpt", "USUBJID": "CDISC003", "row": 1098, "SEQ": 418, "variables": ["FTDTC", "RFPENDTC"], "values": ["2014-02-13T13:00", "2014-02-13"]}, {"core_id": "CORE-000720", "message": "FTDTC is greater than RFPENDTC", "executability": "fully executable", "dataset": "ft.xpt", "USUBJID": "CDISC003", "row": 1099, "SEQ": 419, "variables": ["FTDTC", "RFPENDTC"], "values": ["2014-02-13T13:00", "2014-02-13"]}, {"core_id": "CORE-000720", "message": "FTDTC is greater than RFPENDTC", "executability": "fully executable", "dataset": "ft.xpt", "USUBJID": "CDISC003", "row": 1100, "SEQ": 420, "variables": ["FTDTC", "RFPENDTC"], "values": ["2014-02-13T13:00", "2014-02-13"]}, {"core_id": "CORE-000720", "message": "FTDTC is greater than RFPENDTC", "executability": "fully executable", "dataset": "ft.xpt", "USUBJID": "CDISC003", "row": 1101, "SEQ": 421, "variables": ["FTDTC", "RFPENDTC"], "values": ["2014-02-13T13:00", "2014-02-13"]}, {"core_id": "CORE-000720", "message": "FTDTC is greater than RFPENDTC", "executability": "fully executable", "dataset": "ft.xpt", "USUBJID": "CDISC003", "row": 1102, "SEQ": 422, "variables": ["FTDTC", "RFPENDTC"], "values": ["2014-02-13T13:00", "2014-02-13"]}, {"core_id": "CORE-000720", "message": "FTDTC is greater than RFPENDTC", "executability": "fully executable", "dataset": "ft.xpt", "USUBJID": "CDISC003", "row": 1103, "SEQ": 423, "variables": ["FTDTC", "RFPENDTC"], "values": ["2014-02-13T13:00", "2014-02-13"]}, {"core_id": "CORE-000720", "message": "FTDTC is greater than RFPENDTC", "executability": "fully executable", "dataset": "ft.xpt", "USUBJID": "CDISC003", "row": 1104, "SEQ": 424, "variables": ["FTDTC", "RFPENDTC"], "values": ["2014-02-13T13:00", "2014-02-13"]}, {"core_id": "CORE-000720", "message": "FTDTC is greater than RFPENDTC", "executability": "fully executable", "dataset": "ft.xpt", "USUBJID": "CDISC003", "row": 1105, "SEQ": 425, "variables": ["FTDTC", "RFPENDTC"], "values": ["2014-02-13T13:00", "2014-02-13"]}, {"core_id": "CORE-000720", "message": "FTDTC is greater than RFPENDTC", "executability": "fully executable", "dataset": "ft.xpt", "USUBJID": "CDISC003", "row": 1106, "SEQ": 426, "variables": ["FTDTC", "RFPENDTC"], "values": ["2014-02-13T13:05", "2014-02-13"]}, {"core_id": "CORE-000720", "message": "FTDTC is greater than RFPENDTC", "executability": "fully executable", "dataset": "ft.xpt", "USUBJID": "CDISC003", "row": 1107, "SEQ": 427, "variables": ["FTDTC", "RFPENDTC"], "values": ["2014-02-13T13:05", "2014-02-13"]}, {"core_id": "CORE-000720", "message": "FTDTC is greater than RFPENDTC", "executability": "fully executable", "dataset": "ft.xpt", "USUBJID": "CDISC003", "row": 1108, "SEQ": 428, "variables": ["FTDTC", "RFPENDTC"], "values": ["2014-02-13T13:05", "2014-02-13"]}, {"core_id": "CORE-000720", "message": "FTDTC is greater than RFPENDTC", "executability": "fully executable", "dataset": "ft.xpt", "USUBJID": "CDISC003", "row": 1109, "SEQ": 429, "variables": ["FTDTC", "RFPENDTC"], "values": ["2014-02-13T13:05", "2014-02-13"]}, {"core_id": "CORE-000720", "message": "FTDTC is greater than RFPENDTC", "executability": "fully executable", "dataset": "ft.xpt", "USUBJID": "CDISC003", "row": 1110, "SEQ": 430, "variables": ["FTDTC", "RFPENDTC"], "values": ["2014-02-13T13:05", "2014-02-13"]}, {"core_id": "CORE-000720", "message": "FTDTC is greater than RFPENDTC", "executability": "fully executable", "dataset": "ft.xpt", "USUBJID": "CDISC003", "row": 1111, "SEQ": 431, "variables": ["FTDTC", "RFPENDTC"], "values": ["2014-02-13T13:05", "2014-02-13"]}, {"core_id": "CORE-000720", "message": "FTDTC is greater than RFPENDTC", "executability": "fully executable", "dataset": "ft.xpt", "USUBJID": "CDISC003", "row": 1112, "SEQ": 432, "variables": ["FTDTC", "RFPENDTC"], "values": ["2014-02-13T13:05", "2014-02-13"]}, {"core_id": "CORE-000720", "message": "FTDTC is greater than RFPENDTC", "executability": "fully executable", "dataset": "ft.xpt", "USUBJID": "CDISC003", "row": 1113, "SEQ": 433, "variables": ["FTDTC", "RFPENDTC"], "values": ["2014-02-13T13:05", "2014-02-13"]}, {"core_id": "CORE-000720", "message": "FTDTC is greater than RFPENDTC", "executability": "fully executable", "dataset": "ft.xpt", "USUBJID": "CDISC003", "row": 1114, "SEQ": 434, "variables": ["FTDTC", "RFPENDTC"], "values": ["2014-02-13T13:05", "2014-02-13"]}, {"core_id": "CORE-000720", "message": "FTDTC is greater than RFPENDTC", "executability": "fully executable", "dataset": "ft.xpt", "USUBJID": "CDISC003", "row": 1115, "SEQ": 435, "variables": ["FTDTC", "RFPENDTC"], "values": ["2014-02-13T13:05", "2014-02-13"]}, {"core_id": "CORE-000720", "message": "FTDTC is greater than RFPENDTC", "executability": "fully executable", "dataset": "ft.xpt", "USUBJID": "CDISC003", "row": 1116, "SEQ": 436, "variables": ["FTDTC", "RFPENDTC"], "values": ["2014-02-13T13:05", "2014-02-13"]}, {"core_id": "CORE-000720", "message": "FTDTC is greater than RFPENDTC", "executability": "fully executable", "dataset": "ft.xpt", "USUBJID": "CDISC003", "row": 1117, "SEQ": 437, "variables": ["FTDTC", "RFPENDTC"], "values": ["2014-02-13T13:05", "2014-02-13"]}, {"core_id": "CORE-000720", "message": "FTDTC is greater than RFPENDTC", "executability": "fully executable", "dataset": "ft.xpt", "USUBJID": "CDISC003", "row": 1118, "SEQ": 438, "variables": ["FTDTC", "RFPENDTC"], "values": ["2014-02-13T13:05", "2014-02-13"]}, {"core_id": "CORE-000720", "message": "FTDTC is greater than RFPENDTC", "executability": "fully executable", "dataset": "ft.xpt", "USUBJID": "CDISC003", "row": 1119, "SEQ": 439, "variables": ["FTDTC", "RFPENDTC"], "values": ["2014-02-13T13:05", "2014-02-13"]}, {"core_id": "CORE-000720", "message": "FTDTC is greater than RFPENDTC", "executability": "fully executable", "dataset": "ft.xpt", "USUBJID": "CDISC003", "row": 1120, "SEQ": 440, "variables": ["FTDTC", "RFPENDTC"], "values": ["2014-02-13T13:05", "2014-02-13"]}, {"core_id": "CORE-000720", "message": "FTDTC is greater than RFPENDTC", "executability": "fully executable", "dataset": "ft.xpt", "USUBJID": "CDISC003", "row": 1121, "SEQ": 441, "variables": ["FTDTC", "RFPENDTC"], "values": ["2014-02-13T13:05", "2014-02-13"]}, {"core_id": "CORE-000720", "message": "FTDTC is greater than RFPENDTC", "executability": "fully executable", "dataset": "ft.xpt", "USUBJID": "CDISC003", "row": 1122, "SEQ": 442, "variables": ["FTDTC", "RFPENDTC"], "values": ["2014-02-13T13:05", "2014-02-13"]}, {"core_id": "CORE-000720", "message": "FTDTC is greater than RFPENDTC", "executability": "fully executable", "dataset": "ft.xpt", "USUBJID": "CDISC003", "row": 1123, "SEQ": 443, "variables": ["FTDTC", "RFPENDTC"], "values": ["2014-02-13T13:10", "2014-02-13"]}, {"core_id": "CORE-000720", "message": "FTDTC is greater than RFPENDTC", "executability": "fully executable", "dataset": "ft.xpt", "USUBJID": "CDISC003", "row": 1124, "SEQ": 444, "variables": ["FTDTC", "RFPENDTC"], "values": ["2014-02-13T13:10", "2014-02-13"]}, {"core_id": "CORE-000720", "message": "FTDTC is greater than RFPENDTC", "executability": "fully executable", "dataset": "ft.xpt", "USUBJID": "CDISC003", "row": 1125, "SEQ": 445, "variables": ["FTDTC", "RFPENDTC"], "values": ["2014-02-13T13:10", "2014-02-13"]}, {"core_id": "CORE-000720", "message": "FTDTC is greater than RFPENDTC", "executability": "fully executable", "dataset": "ft.xpt", "USUBJID": "CDISC003", "row": 1126, "SEQ": 446, "variables": ["FTDTC", "RFPENDTC"], "values": ["2014-02-13T13:10", "2014-02-13"]}, {"core_id": "CORE-000720", "message": "FTDTC is greater than RFPENDTC", "executability": "fully executable", "dataset": "ft.xpt", "USUBJID": "CDISC003", "row": 1127, "SEQ": 447, "variables": ["FTDTC", "RFPENDTC"], "values": ["2014-02-13T13:10", "2014-02-13"]}, {"core_id": "CORE-000720", "message": "FTDTC is greater than RFPENDTC", "executability": "fully executable", "dataset": "ft.xpt", "USUBJID": "CDISC003", "row": 1128, "SEQ": 448, "variables": ["FTDTC", "RFPENDTC"], "values": ["2014-02-13T13:10", "2014-02-13"]}, {"core_id": "CORE-000720", "message": "FTDTC is greater than RFPENDTC", "executability": "fully executable", "dataset": "ft.xpt", "USUBJID": "CDISC003", "row": 1129, "SEQ": 449, "variables": ["FTDTC", "RFPENDTC"], "values": ["2014-02-13T13:10", "2014-02-13"]}, {"core_id": "CORE-000720", "message": "FTDTC is greater than RFPENDTC", "executability": "fully executable", "dataset": "ft.xpt", "USUBJID": "CDISC003", "row": 1130, "SEQ": 450, "variables": ["FTDTC", "RFPENDTC"], "values": ["2014-02-13T13:10", "2014-02-13"]}, {"core_id": "CORE-000720", "message": "FTDTC is greater than RFPENDTC", "executability": "fully executable", "dataset": "ft.xpt", "USUBJID": "CDISC003", "row": 1131, "SEQ": 451, "variables": ["FTDTC", "RFPENDTC"], "values": ["2014-02-13T13:10", "2014-02-13"]}, {"core_id": "CORE-000720", "message": "FTDTC is greater than RFPENDTC", "executability": "fully executable", "dataset": "ft.xpt", "USUBJID": "CDISC003", "row": 1132, "SEQ": 452, "variables": ["FTDTC", "RFPENDTC"], "values": ["2014-02-13T13:10", "2014-02-13"]}, {"core_id": "CORE-000720", "message": "FTDTC is greater than RFPENDTC", "executability": "fully executable", "dataset": "ft.xpt", "USUBJID": "CDISC003", "row": 1133, "SEQ": 453, "variables": ["FTDTC", "RFPENDTC"], "values": ["2014-02-13T13:10", "2014-02-13"]}, {"core_id": "CORE-000720", "message": "FTDTC is greater than RFPENDTC", "executability": "fully executable", "dataset": "ft.xpt", "USUBJID": "CDISC003", "row": 1134, "SEQ": 454, "variables": ["FTDTC", "RFPENDTC"], "values": ["2014-02-13T13:10", "2014-02-13"]}, {"core_id": "CORE-000720", "message": "FTDTC is greater than RFPENDTC", "executability": "fully executable", "dataset": "ft.xpt", "USUBJID": "CDISC003", "row": 1135, "SEQ": 455, "variables": ["FTDTC", "RFPENDTC"], "values": ["2014-02-13T13:10", "2014-02-13"]}, {"core_id": "CORE-000720", "message": "FTDTC is greater than RFPENDTC", "executability": "fully executable", "dataset": "ft.xpt", "USUBJID": "CDISC003", "row": 1136, "SEQ": 456, "variables": ["FTDTC", "RFPENDTC"], "values": ["2014-02-13T13:10", "2014-02-13"]}, {"core_id": "CORE-000720", "message": "FTDTC is greater than RFPENDTC", "executability": "fully executable", "dataset": "ft.xpt", "USUBJID": "CDISC003", "row": 1137, "SEQ": 457, "variables": ["FTDTC", "RFPENDTC"], "values": ["2014-02-13T13:10", "2014-02-13"]}, {"core_id": "CORE-000720", "message": "FTDTC is greater than RFPENDTC", "executability": "fully executable", "dataset": "ft.xpt", "USUBJID": "CDISC003", "row": 1138, "SEQ": 458, "variables": ["FTDTC", "RFPENDTC"], "values": ["2014-02-13T13:10", "2014-02-13"]}, {"core_id": "CORE-000720", "message": "FTDTC is greater than RFPENDTC", "executability": "fully executable", "dataset": "ft.xpt", "USUBJID": "CDISC003", "row": 1139, "SEQ": 459, "variables": ["FTDTC", "RFPENDTC"], "values": ["2014-02-13T13:10", "2014-02-13"]}, {"core_id": "CORE-000720", "message": "FTDTC is greater than RFPENDTC", "executability": "fully executable", "dataset": "ft.xpt", "USUBJID": "CDISC003", "row": 1140, "SEQ": 460, "variables": ["FTDTC", "RFPENDTC"], "values": ["2014-02-13T13:15", "2014-02-13"]}, {"core_id": "CORE-000720", "message": "FTDTC is greater than RFPENDTC", "executability": "fully executable", "dataset": "ft.xpt", "USUBJID": "CDISC003", "row": 1141, "SEQ": 461, "variables": ["FTDTC", "RFPENDTC"], "values": ["2014-02-13T13:15", "2014-02-13"]}, {"core_id": "CORE-000720", "message": "FTDTC is greater than RFPENDTC", "executability": "fully executable", "dataset": "ft.xpt", "USUBJID": "CDISC003", "row": 1142, "SEQ": 462, "variables": ["FTDTC", "RFPENDTC"], "values": ["2014-02-13T13:15", "2014-02-13"]}, {"core_id": "CORE-000720", "message": "FTDTC is greater than RFPENDTC", "executability": "fully executable", "dataset": "ft.xpt", "USUBJID": "CDISC003", "row": 1143, "SEQ": 463, "variables": ["FTDTC", "RFPENDTC"], "values": ["2014-02-13T13:15", "2014-02-13"]}, {"core_id": "CORE-000720", "message": "FTDTC is greater than RFPENDTC", "executability": "fully executable", "dataset": "ft.xpt", "USUBJID": "CDISC003", "row": 1144, "SEQ": 464, "variables": ["FTDTC", "RFPENDTC"], "values": ["2014-02-13T13:15", "2014-02-13"]}, {"core_id": "CORE-000720", "message": "FTDTC is greater than RFPENDTC", "executability": "fully executable", "dataset": "ft.xpt", "USUBJID": "CDISC003", "row": 1145, "SEQ": 465, "variables": ["FTDTC", "RFPENDTC"], "values": ["2014-02-13T13:15", "2014-02-13"]}, {"core_id": "CORE-000720", "message": "FTDTC is greater than RFPENDTC", "executability": "fully executable", "dataset": "ft.xpt", "USUBJID": "CDISC003", "row": 1146, "SEQ": 466, "variables": ["FTDTC", "RFPENDTC"], "values": ["2014-02-13T13:15", "2014-02-13"]}, {"core_id": "CORE-000720", "message": "FTDTC is greater than RFPENDTC", "executability": "fully executable", "dataset": "ft.xpt", "USUBJID": "CDISC003", "row": 1147, "SEQ": 467, "variables": ["FTDTC", "RFPENDTC"], "values": ["2014-02-13T13:15", "2014-02-13"]}, {"core_id": "CORE-000720", "message": "FTDTC is greater than RFPENDTC", "executability": "fully executable", "dataset": "ft.xpt", "USUBJID": "CDISC003", "row": 1148, "SEQ": 468, "variables": ["FTDTC", "RFPENDTC"], "values": ["2014-02-13T13:15", "2014-02-13"]}, {"core_id": "CORE-000720", "message": "FTDTC is greater than RFPENDTC", "executability": "fully executable", "dataset": "ft.xpt", "USUBJID": "CDISC003", "row": 1149, "SEQ": 469, "variables": ["FTDTC", "RFPENDTC"], "values": ["2014-02-13T13:15", "2014-02-13"]}, {"core_id": "CORE-000720", "message": "FTDTC is greater than RFPENDTC", "executability": "fully executable", "dataset": "ft.xpt", "USUBJID": "CDISC003", "row": 1150, "SEQ": 470, "variables": ["FTDTC", "RFPENDTC"], "values": ["2014-02-13T13:15", "2014-02-13"]}, {"core_id": "CORE-000720", "message": "FTDTC is greater than RFPENDTC", "executability": "fully executable", "dataset": "ft.xpt", "USUBJID": "CDISC003", "row": 1151, "SEQ": 471, "variables": ["FTDTC", "RFPENDTC"], "values": ["2014-02-13T13:15", "2014-02-13"]}, {"core_id": "CORE-000720", "message": "FTDTC is greater than RFPENDTC", "executability": "fully executable", "dataset": "ft.xpt", "USUBJID": "CDISC003", "row": 1152, "SEQ": 472, "variables": ["FTDTC", "RFPENDTC"], "values": ["2014-02-13T13:15", "2014-02-13"]}, {"core_id": "CORE-000720", "message": "FTDTC is greater than RFPENDTC", "executability": "fully executable", "dataset": "ft.xpt", "USUBJID": "CDISC003", "row": 1153, "SEQ": 473, "variables": ["FTDTC", "RFPENDTC"], "values": ["2014-02-13T13:15", "2014-02-13"]}, {"core_id": "CORE-000720", "message": "FTDTC is greater than RFPENDTC", "executability": "fully executable", "dataset": "ft.xpt", "USUBJID": "CDISC003", "row": 1154, "SEQ": 474, "variables": ["FTDTC", "RFPENDTC"], "values": ["2014-02-13T13:15", "2014-02-13"]}, {"core_id": "CORE-000720", "message": "FTDTC is greater than RFPENDTC", "executability": "fully executable", "dataset": "ft.xpt", "USUBJID": "CDISC003", "row": 1155, "SEQ": 475, "variables": ["FTDTC", "RFPENDTC"], "values": ["2014-02-13T13:15", "2014-02-13"]}, {"core_id": "CORE-000720", "message": "FTDTC is greater than RFPENDTC", "executability": "fully executable", "dataset": "ft.xpt", "USUBJID": "CDISC003", "row": 1156, "SEQ": 476, "variables": ["FTDTC", "RFPENDTC"], "values": ["2014-02-13T13:15", "2014-02-13"]}, {"core_id": "CORE-000720", "message": "FTDTC is greater than RFPENDTC", "executability": "fully executable", "dataset": "ft.xpt", "USUBJID": "CDISC003", "row": 1157, "SEQ": 477, "variables": ["FTDTC", "RFPENDTC"], "values": ["2014-02-13T13:20", "2014-02-13"]}, {"core_id": "CORE-000720", "message": "FTDTC is greater than RFPENDTC", "executability": "fully executable", "dataset": "ft.xpt", "USUBJID": "CDISC003", "row": 1158, "SEQ": 478, "variables": ["FTDTC", "RFPENDTC"], "values": ["2014-02-13T13:20", "2014-02-13"]}, {"core_id": "CORE-000720", "message": "FTDTC is greater than RFPENDTC", "executability": "fully executable", "dataset": "ft.xpt", "USUBJID": "CDISC003", "row": 1159, "SEQ": 479, "variables": ["FTDTC", "RFPENDTC"], "values": ["2014-02-13T13:20", "2014-02-13"]}, {"core_id": "CORE-000720", "message": "FTDTC is greater than RFPENDTC", "executability": "fully executable", "dataset": "ft.xpt", "USUBJID": "CDISC003", "row": 1160, "SEQ": 480, "variables": ["FTDTC", "RFPENDTC"], "values": ["2014-02-13T13:20", "2014-02-13"]}, {"core_id": "CORE-000720", "message": "FTDTC is greater than RFPENDTC", "executability": "fully executable", "dataset": "ft.xpt", "USUBJID": "CDISC003", "row": 1161, "SEQ": 481, "variables": ["FTDTC", "RFPENDTC"], "values": ["2014-02-13T13:20", "2014-02-13"]}, {"core_id": "CORE-000720", "message": "FTDTC is greater than RFPENDTC", "executability": "fully executable", "dataset": "ft.xpt", "USUBJID": "CDISC003", "row": 1162, "SEQ": 482, "variables": ["FTDTC", "RFPENDTC"], "values": ["2014-02-13T13:20", "2014-02-13"]}, {"core_id": "CORE-000720", "message": "FTDTC is greater than RFPENDTC", "executability": "fully executable", "dataset": "ft.xpt", "USUBJID": "CDISC003", "row": 1163, "SEQ": 483, "variables": ["FTDTC", "RFPENDTC"], "values": ["2014-02-13T13:20", "2014-02-13"]}, {"core_id": "CORE-000720", "message": "FTDTC is greater than RFPENDTC", "executability": "fully executable", "dataset": "ft.xpt", "USUBJID": "CDISC003", "row": 1164, "SEQ": 484, "variables": ["FTDTC", "RFPENDTC"], "values": ["2014-02-13T13:20", "2014-02-13"]}, {"core_id": "CORE-000720", "message": "FTDTC is greater than RFPENDTC", "executability": "fully executable", "dataset": "ft.xpt", "USUBJID": "CDISC003", "row": 1165, "SEQ": 485, "variables": ["FTDTC", "RFPENDTC"], "values": ["2014-02-13T13:20", "2014-02-13"]}, {"core_id": "CORE-000720", "message": "FTDTC is greater than RFPENDTC", "executability": "fully executable", "dataset": "ft.xpt", "USUBJID": "CDISC003", "row": 1166, "SEQ": 486, "variables": ["FTDTC", "RFPENDTC"], "values": ["2014-02-13T13:20", "2014-02-13"]}, {"core_id": "CORE-000720", "message": "FTDTC is greater than RFPENDTC", "executability": "fully executable", "dataset": "ft.xpt", "USUBJID": "CDISC003", "row": 1167, "SEQ": 487, "variables": ["FTDTC", "RFPENDTC"], "values": ["2014-02-13T13:20", "2014-02-13"]}, {"core_id": "CORE-000720", "message": "FTDTC is greater than RFPENDTC", "executability": "fully executable", "dataset": "ft.xpt", "USUBJID": "CDISC003", "row": 1168, "SEQ": 488, "variables": ["FTDTC", "RFPENDTC"], "values": ["2014-02-13T13:20", "2014-02-13"]}, {"core_id": "CORE-000720", "message": "FTDTC is greater than RFPENDTC", "executability": "fully executable", "dataset": "ft.xpt", "USUBJID": "CDISC003", "row": 1169, "SEQ": 489, "variables": ["FTDTC", "RFPENDTC"], "values": ["2014-02-13T13:20", "2014-02-13"]}, {"core_id": "CORE-000720", "message": "FTDTC is greater than RFPENDTC", "executability": "fully executable", "dataset": "ft.xpt", "USUBJID": "CDISC003", "row": 1170, "SEQ": 490, "variables": ["FTDTC", "RFPENDTC"], "values": ["2014-02-13T13:20", "2014-02-13"]}, {"core_id": "CORE-000720", "message": "FTDTC is greater than RFPENDTC", "executability": "fully executable", "dataset": "ft.xpt", "USUBJID": "CDISC003", "row": 1171, "SEQ": 491, "variables": ["FTDTC", "RFPENDTC"], "values": ["2014-02-13T13:20", "2014-02-13"]}, {"core_id": "CORE-000720", "message": "FTDTC is greater than RFPENDTC", "executability": "fully executable", "dataset": "ft.xpt", "USUBJID": "CDISC003", "row": 1172, "SEQ": 492, "variables": ["FTDTC", "RFPENDTC"], "values": ["2014-02-13T13:20", "2014-02-13"]}, {"core_id": "CORE-000720", "message": "FTDTC is greater than RFPENDTC", "executability": "fully executable", "dataset": "ft.xpt", "USUBJID": "CDISC003", "row": 1173, "SEQ": 493, "variables": ["FTDTC", "RFPENDTC"], "values": ["2014-02-13T13:20", "2014-02-13"]}, {"core_id": "CORE-000720", "message": "FTDTC is greater than RFPENDTC", "executability": "fully executable", "dataset": "ft.xpt", "USUBJID": "CDISC003", "row": 1174, "SEQ": 494, "variables": ["FTDTC", "RFPENDTC"], "values": ["2014-02-13T13:25", "2014-02-13"]}, {"core_id": "CORE-000720", "message": "FTDTC is greater than RFPENDTC", "executability": "fully executable", "dataset": "ft.xpt", "USUBJID": "CDISC003", "row": 1175, "SEQ": 495, "variables": ["FTDTC", "RFPENDTC"], "values": ["2014-02-13T13:25", "2014-02-13"]}, {"core_id": "CORE-000720", "message": "FTDTC is greater than RFPENDTC", "executability": "fully executable", "dataset": "ft.xpt", "USUBJID": "CDISC003", "row": 1176, "SEQ": 496, "variables": ["FTDTC", "RFPENDTC"], "values": ["2014-02-13T13:25", "2014-02-13"]}, {"core_id": "CORE-000720", "message": "FTDTC is greater than RFPENDTC", "executability": "fully executable", "dataset": "ft.xpt", "USUBJID": "CDISC003", "row": 1177, "SEQ": 497, "variables": ["FTDTC", "RFPENDTC"], "values": ["2014-02-13T13:25", "2014-02-13"]}, {"core_id": "CORE-000720", "message": "FTDTC is greater than RFPENDTC", "executability": "fully executable", "dataset": "ft.xpt", "USUBJID": "CDISC003", "row": 1178, "SEQ": 498, "variables": ["FTDTC", "RFPENDTC"], "values": ["2014-02-13T13:25", "2014-02-13"]}, {"core_id": "CORE-000720", "message": "FTDTC is greater than RFPENDTC", "executability": "fully executable", "dataset": "ft.xpt", "USUBJID": "CDISC003", "row": 1179, "SEQ": 499, "variables": ["FTDTC", "RFPENDTC"], "values": ["2014-02-13T13:25", "2014-02-13"]}, {"core_id": "CORE-000720", "message": "FTDTC is greater than RFPENDTC", "executability": "fully executable", "dataset": "ft.xpt", "USUBJID": "CDISC003", "row": 1180, "SEQ": 500, "variables": ["FTDTC", "RFPENDTC"], "values": ["2014-02-13T13:25", "2014-02-13"]}, {"core_id": "CORE-000720", "message": "FTDTC is greater than RFPENDTC", "executability": "fully executable", "dataset": "ft.xpt", "USUBJID": "CDISC003", "row": 1181, "SEQ": 501, "variables": ["FTDTC", "RFPENDTC"], "values": ["2014-02-13T13:25", "2014-02-13"]}, {"core_id": "CORE-000720", "message": "FTDTC is greater than RFPENDTC", "executability": "fully executable", "dataset": "ft.xpt", "USUBJID": "CDISC003", "row": 1182, "SEQ": 502, "variables": ["FTDTC", "RFPENDTC"], "values": ["2014-02-13T13:25", "2014-02-13"]}, {"core_id": "CORE-000720", "message": "FTDTC is greater than RFPENDTC", "executability": "fully executable", "dataset": "ft.xpt", "USUBJID": "CDISC003", "row": 1183, "SEQ": 503, "variables": ["FTDTC", "RFPENDTC"], "values": ["2014-02-13T13:25", "2014-02-13"]}, {"core_id": "CORE-000720", "message": "FTDTC is greater than RFPENDTC", "executability": "fully executable", "dataset": "ft.xpt", "USUBJID": "CDISC003", "row": 1184, "SEQ": 504, "variables": ["FTDTC", "RFPENDTC"], "values": ["2014-02-13T13:25", "2014-02-13"]}, {"core_id": "CORE-000720", "message": "FTDTC is greater than RFPENDTC", "executability": "fully executable", "dataset": "ft.xpt", "USUBJID": "CDISC003", "row": 1185, "SEQ": 505, "variables": ["FTDTC", "RFPENDTC"], "values": ["2014-02-13T13:25", "2014-02-13"]}, {"core_id": "CORE-000720", "message": "FTDTC is greater than RFPENDTC", "executability": "fully executable", "dataset": "ft.xpt", "USUBJID": "CDISC003", "row": 1186, "SEQ": 506, "variables": ["FTDTC", "RFPENDTC"], "values": ["2014-02-13T13:25", "2014-02-13"]}, {"core_id": "CORE-000720", "message": "FTDTC is greater than RFPENDTC", "executability": "fully executable", "dataset": "ft.xpt", "USUBJID": "CDISC003", "row": 1187, "SEQ": 507, "variables": ["FTDTC", "RFPENDTC"], "values": ["2014-02-13T13:25", "2014-02-13"]}, {"core_id": "CORE-000720", "message": "FTDTC is greater than RFPENDTC", "executability": "fully executable", "dataset": "ft.xpt", "USUBJID": "CDISC003", "row": 1188, "SEQ": 508, "variables": ["FTDTC", "RFPENDTC"], "values": ["2014-02-13T13:25", "2014-02-13"]}, {"core_id": "CORE-000720", "message": "FTDTC is greater than RFPENDTC", "executability": "fully executable", "dataset": "ft.xpt", "USUBJID": "CDISC003", "row": 1189, "SEQ": 509, "variables": ["FTDTC", "RFPENDTC"], "values": ["2014-02-13T13:25", "2014-02-13"]}, {"core_id": "CORE-000720", "message": "FTDTC is greater than RFPENDTC", "executability": "fully executable", "dataset": "ft.xpt", "USUBJID": "CDISC003", "row": 1190, "SEQ": 510, "variables": ["FTDTC", "RFPENDTC"], "values": ["2014-02-13T13:25", "2014-02-13"]}, {"core_id": "CORE-000720", "message": "FTDTC is greater than RFPENDTC", "executability": "fully executable", "dataset": "ft.xpt", "USUBJID": "CDISC003", "row": 1191, "SEQ": 511, "variables": ["FTDTC", "RFPENDTC"], "values": ["2014-02-13T13:30", "2014-02-13"]}, {"core_id": "CORE-000720", "message": "FTDTC is greater than RFPENDTC", "executability": "fully executable", "dataset": "ft.xpt", "USUBJID": "CDISC003", "row": 1192, "SEQ": 512, "variables": ["FTDTC", "RFPENDTC"], "values": ["2014-02-13T13:30", "2014-02-13"]}, {"core_id": "CORE-000720", "message": "FTDTC is greater than RFPENDTC", "executability": "fully executable", "dataset": "ft.xpt", "USUBJID": "CDISC003", "row": 1193, "SEQ": 513, "variables": ["FTDTC", "RFPENDTC"], "values": ["2014-02-13T13:30", "2014-02-13"]}, {"core_id": "CORE-000720", "message": "FTDTC is greater than RFPENDTC", "executability": "fully executable", "dataset": "ft.xpt", "USUBJID": "CDISC003", "row": 1194, "SEQ": 514, "variables": ["FTDTC", "RFPENDTC"], "values": ["2014-02-13T13:30", "2014-02-13"]}, {"core_id": "CORE-000720", "message": "FTDTC is greater than RFPENDTC", "executability": "fully executable", "dataset": "ft.xpt", "USUBJID": "CDISC003", "row": 1195, "SEQ": 515, "variables": ["FTDTC", "RFPENDTC"], "values": ["2014-02-13T13:30", "2014-02-13"]}, {"core_id": "CORE-000720", "message": "FTDTC is greater than RFPENDTC", "executability": "fully executable", "dataset": "ft.xpt", "USUBJID": "CDISC003", "row": 1196, "SEQ": 516, "variables": ["FTDTC", "RFPENDTC"], "values": ["2014-02-13T13:30", "2014-02-13"]}, {"core_id": "CORE-000720", "message": "FTDTC is greater than RFPENDTC", "executability": "fully executable", "dataset": "ft.xpt", "USUBJID": "CDISC003", "row": 1197, "SEQ": 517, "variables": ["FTDTC", "RFPENDTC"], "values": ["2014-02-13T13:30", "2014-02-13"]}, {"core_id": "CORE-000720", "message": "FTDTC is greater than RFPENDTC", "executability": "fully executable", "dataset": "ft.xpt", "USUBJID": "CDISC003", "row": 1198, "SEQ": 518, "variables": ["FTDTC", "RFPENDTC"], "values": ["2014-02-13T13:30", "2014-02-13"]}, {"core_id": "CORE-000720", "message": "FTDTC is greater than RFPENDTC", "executability": "fully executable", "dataset": "ft.xpt", "USUBJID": "CDISC003", "row": 1199, "SEQ": 519, "variables": ["FTDTC", "RFPENDTC"], "values": ["2014-02-13T13:30", "2014-02-13"]}, {"core_id": "CORE-000720", "message": "FTDTC is greater than RFPENDTC", "executability": "fully executable", "dataset": "ft.xpt", "USUBJID": "CDISC003", "row": 1200, "SEQ": 520, "variables": ["FTDTC", "RFPENDTC"], "values": ["2014-02-13T13:30", "2014-02-13"]}, {"core_id": "CORE-000720", "message": "FTDTC is greater than RFPENDTC", "executability": "fully executable", "dataset": "ft.xpt", "USUBJID": "CDISC003", "row": 1201, "SEQ": 521, "variables": ["FTDTC", "RFPENDTC"], "values": ["2014-02-13T13:30", "2014-02-13"]}, {"core_id": "CORE-000720", "message": "FTDTC is greater than RFPENDTC", "executability": "fully executable", "dataset": "ft.xpt", "USUBJID": "CDISC003", "row": 1202, "SEQ": 522, "variables": ["FTDTC", "RFPENDTC"], "values": ["2014-02-13T13:30", "2014-02-13"]}, {"core_id": "CORE-000720", "message": "FTDTC is greater than RFPENDTC", "executability": "fully executable", "dataset": "ft.xpt", "USUBJID": "CDISC003", "row": 1203, "SEQ": 523, "variables": ["FTDTC", "RFPENDTC"], "values": ["2014-02-13T13:30", "2014-02-13"]}, {"core_id": "CORE-000720", "message": "FTDTC is greater than RFPENDTC", "executability": "fully executable", "dataset": "ft.xpt", "USUBJID": "CDISC003", "row": 1204, "SEQ": 524, "variables": ["FTDTC", "RFPENDTC"], "values": ["2014-02-13T13:30", "2014-02-13"]}, {"core_id": "CORE-000720", "message": "FTDTC is greater than RFPENDTC", "executability": "fully executable", "dataset": "ft.xpt", "USUBJID": "CDISC003", "row": 1205, "SEQ": 525, "variables": ["FTDTC", "RFPENDTC"], "values": ["2014-02-13T13:30", "2014-02-13"]}, {"core_id": "CORE-000720", "message": "FTDTC is greater than RFPENDTC", "executability": "fully executable", "dataset": "ft.xpt", "USUBJID": "CDISC003", "row": 1206, "SEQ": 526, "variables": ["FTDTC", "RFPENDTC"], "values": ["2014-02-13T13:30", "2014-02-13"]}, {"core_id": "CORE-000720", "message": "FTDTC is greater than RFPENDTC", "executability": "fully executable", "dataset": "ft.xpt", "USUBJID": "CDISC003", "row": 1207, "SEQ": 527, "variables": ["FTDTC", "RFPENDTC"], "values": ["2014-02-13T13:30", "2014-02-13"]}, {"core_id": "CORE-000720", "message": "FTDTC is greater than RFPENDTC", "executability": "fully executable", "dataset": "ft.xpt", "USUBJID": "CDISC003", "row": 1208, "SEQ": 528, "variables": ["FTDTC", "RFPENDTC"], "values": ["2014-02-13T14:00", "2014-02-13"]}, {"core_id": "CORE-000720", "message": "FTDTC is greater than RFPENDTC", "executability": "fully executable", "dataset": "ft.xpt", "USUBJID": "CDISC003", "row": 1209, "SEQ": 529, "variables": ["FTDTC", "RFPENDTC"], "values": ["2014-02-13T14:00", "2014-02-13"]}, {"core_id": "CORE-000720", "message": "FTDTC is greater than RFPENDTC", "executability": "fully executable", "dataset": "ft.xpt", "USUBJID": "CDISC003", "row": 1210, "SEQ": 530, "variables": ["FTDTC", "RFPENDTC"], "values": ["2014-02-13T14:00", "2014-02-13"]}, {"core_id": "CORE-000720", "message": "FTDTC is greater than RFPENDTC", "executability": "fully executable", "dataset": "ft.xpt", "USUBJID": "CDISC003", "row": 1211, "SEQ": 531, "variables": ["FTDTC", "RFPENDTC"], "values": ["2014-02-13T14:00", "2014-02-13"]}, {"core_id": "CORE-000720", "message": "FTDTC is greater than RFPENDTC", "executability": "fully executable", "dataset": "ft.xpt", "USUBJID": "CDISC003", "row": 1212, "SEQ": 532, "variables": ["FTDTC", "RFPENDTC"], "values": ["2014-02-13T14:00", "2014-02-13"]}, {"core_id": "CORE-000720", "message": "FTDTC is greater than RFPENDTC", "executability": "fully executable", "dataset": "ft.xpt", "USUBJID": "CDISC003", "row": 1213, "SEQ": 533, "variables": ["FTDTC", "RFPENDTC"], "values": ["2014-02-13T14:00", "2014-02-13"]}, {"core_id": "CORE-000720", "message": "FTDTC is greater than RFPENDTC", "executability": "fully executable", "dataset": "ft.xpt", "USUBJID": "CDISC003", "row": 1214, "SEQ": 534, "variables": ["FTDTC", "RFPENDTC"], "values": ["2014-02-13T14:00", "2014-02-13"]}, {"core_id": "CORE-000720", "message": "FTDTC is greater than RFPENDTC", "executability": "fully executable", "dataset": "ft.xpt", "USUBJID": "CDISC003", "row": 1215, "SEQ": 535, "variables": ["FTDTC", "RFPENDTC"], "values": ["2014-02-13T14:00", "2014-02-13"]}, {"core_id": "CORE-000720", "message": "FTDTC is greater than RFPENDTC", "executability": "fully executable", "dataset": "ft.xpt", "USUBJID": "CDISC003", "row": 1216, "SEQ": 536, "variables": ["FTDTC", "RFPENDTC"], "values": ["2014-02-13T14:00", "2014-02-13"]}, {"core_id": "CORE-000720", "message": "FTDTC is greater than RFPENDTC", "executability": "fully executable", "dataset": "ft.xpt", "USUBJID": "CDISC003", "row": 1217, "SEQ": 537, "variables": ["FTDTC", "RFPENDTC"], "values": ["2014-02-13T14:00", "2014-02-13"]}, {"core_