{"Conformance_Details": {"Report_Generation": "2026-01-23T12:39:15", "Total_Runtime": "47.61 seconds", "CORE_Engine_Version": "0.14.2", "Issue_Limit_Per_Rule": "None", "Issue_Limit_Per_Dataset": "None", "Issue_Limit_Per_Sheet": null, "Standard": "SDTMIG", "Version": "V3.4", "CT_Version": "sdtmct-2020-12-18", "Define_XML_Version": "2.1.0"}, "Dataset_Details": [{"filename": "AE", "label": "Adverse Events", "path": "C:\\wt\\git\\cdisc-data-examples\\DataExchange-DatasetJson\\sdtm\\json", "modification_date": "2024-11-11T15:09:14", "size_kb": 22.83, "length": 74}, {"filename": "CM", "label": "Concomitant Medications", "path": "C:\\wt\\git\\cdisc-data-examples\\DataExchange-DatasetJson\\sdtm\\json", "modification_date": "2024-11-11T15:09:14", "size_kb": 13.251, "length": 68}, {"filename": "DD", "label": "Death Details", "path": "C:\\wt\\git\\cdisc-data-examples\\DataExchange-DatasetJson\\sdtm\\json", "modification_date": "2024-11-11T15:09:15", "size_kb": 2.241, "length": 3}, {"filename": "DI", "label": "Device Identifiers", "path": "C:\\wt\\git\\cdisc-data-examples\\DataExchange-DatasetJson\\sdtm\\json", "modification_date": "2024-11-11T15:09:15", "size_kb": 4.015, "length": 34}, {"filename": "DM", "label": "Demographics", "path": "C:\\wt\\git\\cdisc-data-examples\\DataExchange-DatasetJson\\sdtm\\json", "modification_date": "2024-11-11T15:09:15", "size_kb": 7.984, "length": 18}, {"filename": "DS", "label": "Disposition", "path": "C:\\wt\\git\\cdisc-data-examples\\DataExchange-DatasetJson\\sdtm\\json", "modification_date": "2024-11-11T15:09:15", "size_kb": 9.525, "length": 53}, {"filename": "EC", "label": "Exposure as Collected", "path": "C:\\wt\\git\\cdisc-data-examples\\DataExchange-DatasetJson\\sdtm\\json", "modification_date": "2024-11-11T15:09:15", "size_kb": 276.277, "length": 1590}, {"filename": "EX", "label": "Exposure", "path": "C:\\wt\\git\\cdisc-data-examples\\DataExchange-DatasetJson\\sdtm\\json", "modification_date": "2024-11-11T15:09:16", "size_kb": 247.507, "length": 1583}, {"filename": "FA", "label": "Findings About Events or Interventions", "path": "C:\\wt\\git\\cdisc-data-examples\\DataExchange-DatasetJson\\sdtm\\json", "modification_date": "2024-11-11T15:09:16", "size_kb": 14.338, "length": 78}, {"filename": "FT", "label": "Functional Tests", "path": "C:\\wt\\git\\cdisc-data-examples\\DataExchange-DatasetJson\\sdtm\\json", "modification_date": "2024-11-11T15:09:16", "size_kb": 856.443, "length": 4488}, {"filename": "IE", "label": "Inclusion/Exclusion Criteria Not Met", "path": "C:\\wt\\git\\cdisc-data-examples\\DataExchange-DatasetJson\\sdtm\\json", "modification_date": "2024-11-11T15:09:16", "size_kb": 1.977, "length": 1}, {"filename": "LB", "label": "Laboratory Test Results", "path": "C:\\wt\\git\\cdisc-data-examples\\DataExchange-DatasetJson\\sdtm\\json", "modification_date": "2024-11-11T15:09:16", "size_kb": 638.679, "length": 3488}, {"filename": "MH", "label": "Medical History", "path": "C:\\wt\\git\\cdisc-data-examples\\DataExchange-DatasetJson\\sdtm\\json", "modification_date": "2024-11-11T15:09:17", "size_kb": 3.006, "length": 17}, {"filename": "OE", "label": "Ophthalmic Examinations", "path": "C:\\wt\\git\\cdisc-data-examples\\DataExchange-DatasetJson\\sdtm\\json", "modification_date": "2024-11-11T15:09:17", "size_kb": 47.248, "length": 285}, {"filename": "QSPH", "label": "Questionnaires (PHQ-9)", "path": "C:\\wt\\git\\cdisc-data-examples\\DataExchange-DatasetJson\\sdtm\\json", "modification_date": "2024-11-11T15:09:17", "size_kb": 59.591, "length": 330}, {"filename": "QSSL", "label": "Questionnaires (SQLS)", "path": "C:\\wt\\git\\cdisc-data-examples\\DataExchange-DatasetJson\\sdtm\\json", "modification_date": "2024-11-11T15:09:17", "size_kb": 24.655, "length": 135}, {"filename": "RELREC", "label": "Related Records", "path": "C:\\wt\\git\\cdisc-data-examples\\DataExchange-DatasetJson\\sdtm\\json", "modification_date": "2024-11-11T15:09:17", "size_kb": 1.718, "length": 6}, {"filename": "RS", "label": "Disease Response and Clin Classification", "path": "C:\\wt\\git\\cdisc-data-examples\\DataExchange-DatasetJson\\sdtm\\json", "modification_date": "2024-11-11T15:09:17", "size_kb": 70.898, "length": 375}, {"filename": "SE", "label": "Subject Elements", "path": "C:\\wt\\git\\cdisc-data-examples\\DataExchange-DatasetJson\\sdtm\\json", "modification_date": "2024-11-11T15:09:18", "size_kb": 6.183, "length": 43}, {"filename": "SUPPDM", "label": "Supplemental Qualifiers for DM", "path": "C:\\wt\\git\\cdisc-data-examples\\DataExchange-DatasetJson\\sdtm\\json", "modification_date": "2024-11-11T15:09:18", "size_kb": 1.954, "length": 3}, {"filename": "SUPPEC", "label": "Supplemental Qualifiers for EC", "path": "C:\\wt\\git\\cdisc-data-examples\\DataExchange-DatasetJson\\sdtm\\json", "modification_date": "2024-11-11T15:09:18", "size_kb": 2.654, "length": 7}, {"filename": "SV", "label": "Subject Visits", "path": "C:\\wt\\git\\cdisc-data-examples\\DataExchange-DatasetJson\\sdtm\\json", "modification_date": "2024-11-11T15:09:18", "size_kb": 15.526, "length": 164}, {"filename": "TA", "label": "Trial Arms", "path": "C:\\wt\\git\\cdisc-data-examples\\DataExchange-DatasetJson\\sdtm\\json", "modification_date": "2024-11-11T15:09:18", "size_kb": 2.494, "length": 8}, {"filename": "TE", "label": "Trial Elements", "path": "C:\\wt\\git\\cdisc-data-examples\\DataExchange-DatasetJson\\sdtm\\json", "modification_date": "2024-11-11T15:09:18", "size_kb": 1.819, "length": 5}, {"filename": "TI", "label": "Trial Inclusion/Exclusion Criteria", "path": "C:\\wt\\git\\cdisc-data-examples\\DataExchange-DatasetJson\\sdtm\\json", "modification_date": "2024-11-11T15:09:19", "size_kb": 12.094, "length": 62}, {"filename": "TS", "label": "Trial Summary", "path": "C:\\wt\\git\\cdisc-data-examples\\DataExchange-DatasetJson\\sdtm\\json", "modification_date": "2024-11-11T15:09:19", "size_kb": 7.39, "length": 51}, {"filename": "TV", "label": "Trial Visits", "path": "C:\\wt\\git\\cdisc-data-examples\\DataExchange-DatasetJson\\sdtm\\json", "modification_date": "2024-11-11T15:09:19", "size_kb": 2.488, "length": 14}, {"filename": "VS", "label": "Vital Signs", "path": "C:\\wt\\git\\cdisc-data-examples\\DataExchange-DatasetJson\\sdtm\\json", "modification_date": "2024-11-11T15:09:19", "size_kb": 227.506, "length": 1414}], "Issue_Summary": [{"dataset": "ae.json", "core_id": "CORE-000266", "message": "If AESER = \"N\" then none of the seriousness criteria (AESCAN, AESCONG, AESDISAB, AESDTH, AESHOSP, AESLIFE, AESOD, AESMIE) could be equal to \"Y\".", "issues": 1}, {"dataset": "ae.json", "core_id": "CORE-000356", "message": "At least one Required variable has a null value", "issues": 74}, {"dataset": "ae.json", "core_id": "CORE-000766", "message": "Related record is present in the parent domain dataset and \"Other, specify\" value was coded.", "issues": 99}, {"dataset": "ae.json", "core_id": "CORE-000841", "message": "AEENDTC in AE dataset of AE where AEOUT = 'FATAL' is not equal to DTHDTC in the DM dataset.", "issues": 2}, {"dataset": "dm.json", "core_id": "CORE-000238", "message": "RFXENDTC does not equal the latest value of EX.EXSTDTC or EX.EXENDTC", "issues": 1}, {"dataset": "ds.json", "core_id": "CORE-000767", "message": "Parent record exists and DSDECOD is not null, but FAOBJ is not equal to DSDECOD.", "issues": 18}, {"dataset": "fa.json", "core_id": "CORE-000358", "message": "LNKGRP variable is not found in any of the other domains.", "issues": 1}, {"dataset": "fa.json", "core_id": "CORE-000744", "message": "Related record is present in the parent domain dataset but FAOBJ is not equal to the \"TERM\", \"TRT\" or \"DECOD\" of the parent domain.", "issues": 78}, {"dataset": "ft.json", "core_id": "CORE-000720", "message": "FTDTC is greater than RFPENDTC", "issues": 408}, {"dataset": "ft.json", "core_id": "CORE-000915", "message": "There are multiple records per assigned last observation before exposure flag (FTLOBXFL).", "issues": 1666}, {"dataset": "lb.json", "core_id": "CORE-000289", "message": "LBORRES is not a continuous measurement but LBORNRHI is not empty.", "issues": 1}, {"dataset": "lb.json", "core_id": "CORE-000290", "message": "LBORRES is not a continuous measurement but LBORNRLO is not empty.", "issues": 1}, {"dataset": "lb.json", "core_id": "CORE-000298", "message": "LBORRES is not a continuous measurment but LBSTNRLO is not empty.", "issues": 1}, {"dataset": "lb.json", "core_id": "CORE-000299", "message": "LBORRES is not a continuous measurement but LBSTNRHI is not empty.", "issues": 1}, {"dataset": "lb.json", "core_id": "CORE-000720", "message": "LBDTC is greater than RFPENDTC", "issues": 165}, {"dataset": "oe.json", "core_id": "CORE-000334", "message": "At least one expected variable is missing from dataset", "issues": 1}, {"dataset": "oe.json", "core_id": "CORE-000915", "message": "There are multiple records per assigned last observation before exposure flag (OELOBXFL).", "issues": 34}, {"dataset": "qsph.json, qssl.json", "core_id": "CORE-000539", "message": "Split dataset is present but the two-Letter parent domain is missing.", "issues": 2}, {"dataset": "suppec.json", "core_id": "CORE-000783", "message": "SUPP.QNAM is present in the dataset, but the value of SUPP.QNAM equals a variable name defined in the corresponding SDTM version.", "issues": 7}, {"dataset": "sv.json", "core_id": "CORE-000334", "message": "At least one expected variable is missing from dataset", "issues": 1}, {"dataset": "ts.json", "core_id": "CORE-000741", "message": "The set  ('INTMODEL\u2019, 'INTTYPE','PCLASS') is not in the list of TSPARAMCD with TSVAL populated.", "issues": 1}], "Issue_Details": [{"core_id": "CORE-000238", "message": "RFXENDTC does not equal the latest value of EX.EXSTDTC or EX.EXENDTC", "executability": "fully executable", "dataset": "dm.json", "USUBJID": "CDISC008", "row": 8, "SEQ": "", "variables": ["$max_ex_exendtc", "$max_ex_exstdtc", "RFXENDTC"], "values": ["2014-10-31", "2014-10-31", "2014-11-01"]}, {"core_id": "CORE-000266", "message": "If AESER = \"N\" then none of the seriousness criteria (AESCAN, AESCONG, AESDISAB, AESDTH, AESHOSP, AESLIFE, AESOD, AESMIE) could be equal to \"Y\".", "executability": "fully executable", "dataset": "ae.json", "USUBJID": "CDISC003", "row": 24, "SEQ": 13, "variables": ["AESCAN", "AESCONG", "AESDISAB", "AESDTH", "AESER", "AESHOSP", "AESLIFE", "AESMIE", "AESOD"], "values": ["N", "N", "N", "N", "Y", "N", "N", "Not in dataset", "N"]}, {"core_id": "CORE-000289", "message": "LBORRES is not a continuous measurement but LBORNRHI is not empty.", "executability": "fully executable", "dataset": "lb.json", "USUBJID": "CDISC001", "row": 87, "SEQ": 87, "variables": ["LBORNRHI", "LBORRES"], "values": ["250", "<40"]}, {"core_id": "CORE-000290", "message": "LBORRES is not a continuous measurement but LBORNRLO is not empty.", "executability": "fully executable", "dataset": "lb.json", "USUBJID": "CDISC001", "row": 87, "SEQ": 87, "variables": ["LBORNRLO", "LBORRES"], "values": ["50", "<40"]}, {"core_id": "CORE-000298", "message": "LBORRES is not a continuous measurment but LBSTNRLO is not empty.", "executability": "fully executable", "dataset": "lb.json", "USUBJID": "CDISC001", "row": 87, "SEQ": 87, "variables": ["LBORRES", "LBSTNRLO"], "values": ["<40", "2.8"]}, {"core_id": "CORE-000299", "message": "LBORRES is not a continuous measurement but LBSTNRHI is not empty.", "executability": "fully executable", "dataset": "lb.json", "USUBJID": "CDISC001", "row": 87, "SEQ": 87, "variables": ["LBORRES", "LBSTNRHI"], "values": ["<40", "13.9"]}, {"core_id": "CORE-000334", "message": "At least one expected variable is missing from dataset", "executability": "fully executable", "dataset": "oe.json", "USUBJID": "", "row": "", "SEQ": "", "variables": ["$dataset_variables", "$expected_variables"], "values": ["['STUDYID', 'DOMAIN', 'USUBJID', 'FOCID', 'OESEQ', 'OETESTCD', 'OETEST', 'OEORRES', 'OESTRESC', 'OELOC', 'OELAT', 'OEMETHOD', 'OELOBXFL', 'VISITNUM', 'VISIT', 'EPOCH', 'OEDTC', 'OEDY']", "['OEORRES', 'OEORRESU', 'OESTRESC', 'OESTRESN', 'OESTRESU', 'OELOC', 'OELAT', 'OEMETHOD', 'OELOBXFL', 'VISITNUM', 'OEDTC', 'OEDY']"]}, {"core_id": "CORE-000334", "message": "At least one expected variable is missing from dataset", "executability": "fully executable", "dataset": "sv.json", "USUBJID": "", "row": "", "SEQ": "", "variables": ["$dataset_variables", "$expected_variables"], "values": ["['STUDYID', 'DOMAIN', 'USUBJID', 'VISITNUM', 'VISIT', 'SVSTDTC', 'SVENDTC', 'SVSTDY', 'SVENDY', 'SVUPDES']", "['SVPRESP', 'SVOCCUR', 'SVSTDTC', 'SVENDTC']"]}, {"core_id": "CORE-000356", "message": "At least one Required variable has a null value", "executability": "fully executable", "dataset": "ae.json", "USUBJID": "", "row": 1, "SEQ": "", "variables": ["variable_name", "variable_value"], "values": ["AEDECOD", "null"]}, {"core_id": "CORE-000356", "message": "At least one Required variable has a null value", "executability": "fully executable", "dataset": "ae.json", "USUBJID": "", "row": 2, "SEQ": "", "variables": ["variable_name", "variable_value"], "values": ["AEDECOD", "null"]}, {"core_id": "CORE-000356", "message": "At least one Required variable has a null value", "executability": "fully executable", "dataset": "ae.json", "USUBJID": "", "row": 3, "SEQ": "", "variables": ["variable_name", "variable_value"], "values": ["AEDECOD", "null"]}, {"core_id": "CORE-000356", "message": "At least one Required variable has a null value", "executability": "fully executable", "dataset": "ae.json", "USUBJID": "", "row": 4, "SEQ": "", "variables": ["variable_name", "variable_value"], "values": ["AEDECOD", "null"]}, {"core_id": "CORE-000356", "message": "At least one Required variable has a null value", "executability": "fully executable", "dataset": "ae.json", "USUBJID": "", "row": 5, "SEQ": "", "variables": ["variable_name", "variable_value"], "values": ["AEDECOD", "null"]}, {"core_id": "CORE-000356", "message": "At least one Required variable has a null value", "executability": "fully executable", "dataset": "ae.json", "USUBJID": "", "row": 6, "SEQ": "", "variables": ["variable_name", "variable_value"], "values": ["AEDECOD", "null"]}, {"core_id": "CORE-000356", "message": "At least one Required variable has a null value", "executability": "fully executable", "dataset": "ae.json", "USUBJID": "", "row": 7, "SEQ": "", "variables": ["variable_name", "variable_value"], "values": ["AEDECOD", "null"]}, {"core_id": "CORE-000356", "message": "At least one Required variable has a null value", "executability": "fully executable", "dataset": "ae.json", "USUBJID": "", "row": 8, "SEQ": "", "variables": ["variable_name", "variable_value"], "values": ["AEDECOD", "null"]}, {"core_id": "CORE-000356", "message": "At least one Required variable has a null value", "executability": "fully executable", "dataset": "ae.json", "USUBJID": "", "row": 9, "SEQ": "", "variables": ["variable_name", "variable_value"], "values": ["AEDECOD", "null"]}, {"core_id": "CORE-000356", "message": "At least one Required variable has a null value", "executability": "fully executable", "dataset": "ae.json", "USUBJID": "", "row": 10, "SEQ": "", "variables": ["variable_name", "variable_value"], "values": ["AEDECOD", "null"]}, {"core_id": "CORE-000356", "message": "At least one Required variable has a null value", "executability": "fully executable", "dataset": "ae.json", "USUBJID": "", "row": 11, "SEQ": "", "variables": ["variable_name", "variable_value"], "values": ["AEDECOD", "null"]}, {"core_id": "CORE-000356", "message": "At least one Required variable has a null value", "executability": "fully executable", "dataset": "ae.json", "USUBJID": "", "row": 12, "SEQ": "", "variables": ["variable_name", "variable_value"], "values": ["AEDECOD", "null"]}, {"core_id": "CORE-000356", "message": "At least one Required variable has a null value", "executability": "fully executable", "dataset": "ae.json", "USUBJID": "", "row": 13, "SEQ": "", "variables": ["variable_name", "variable_value"], "values": ["AEDECOD", "null"]}, {"core_id": "CORE-000356", "message": "At least one Required variable has a null value", "executability": "fully executable", "dataset": "ae.json", "USUBJID": "", "row": 14, "SEQ": "", "variables": ["variable_name", "variable_value"], "values": ["AEDECOD", "null"]}, {"core_id": "CORE-000356", "message": "At least one Required variable has a null value", "executability": "fully executable", "dataset": "ae.json", "USUBJID": "", "row": 15, "SEQ": "", "variables": ["variable_name", "variable_value"], "values": ["AEDECOD", "null"]}, {"core_id": "CORE-000356", "message": "At least one Required variable has a null value", "executability": "fully executable", "dataset": "ae.json", "USUBJID": "", "row": 16, "SEQ": "", "variables": ["variable_name", "variable_value"], "values": ["AEDECOD", "null"]}, {"core_id": "CORE-000356", "message": "At least one Required variable has a null value", "executability": "fully executable", "dataset": "ae.json", "USUBJID": "", "row": 17, "SEQ": "", "variables": ["variable_name", "variable_value"], "values": ["AEDECOD", "null"]}, {"core_id": "CORE-000356", "message": "At least one Required variable has a null value", "executability": "fully executable", "dataset": "ae.json", "USUBJID": "", "row": 18, "SEQ": "", "variables": ["variable_name", "variable_value"], "values": ["AEDECOD", "null"]}, {"core_id": "CORE-000356", "message": "At least one Required variable has a null value", "executability": "fully executable", "dataset": "ae.json", "USUBJID": "", "row": 19, "SEQ": "", "variables": ["variable_name", "variable_value"], "values": ["AEDECOD", "null"]}, {"core_id": "CORE-000356", "message": "At least one Required variable has a null value", "executability": "fully executable", "dataset": "ae.json", "USUBJID": "", "row": 20, "SEQ": "", "variables": ["variable_name", "variable_value"], "values": ["AEDECOD", "null"]}, {"core_id": "CORE-000356", "message": "At least one Required variable has a null value", "executability": "fully executable", "dataset": "ae.json", "USUBJID": "", "row": 21, "SEQ": "", "variables": ["variable_name", "variable_value"], "values": ["AEDECOD", "null"]}, {"core_id": "CORE-000356", "message": "At least one Required variable has a null value", "executability": "fully executable", "dataset": "ae.json", "USUBJID": "", "row": 22, "SEQ": "", "variables": ["variable_name", "variable_value"], "values": ["AEDECOD", "null"]}, {"core_id": "CORE-000356", "message": "At least one Required variable has a null value", "executability": "fully executable", "dataset": "ae.json", "USUBJID": "", "row": 23, "SEQ": "", "variables": ["variable_name", "variable_value"], "values": ["AEDECOD", "null"]}, {"core_id": "CORE-000356", "message": "At least one Required variable has a null value", "executability": "fully executable", "dataset": "ae.json", "USUBJID": "", "row": 24, "SEQ": "", "variables": ["variable_name", "variable_value"], "values": ["AEDECOD", "null"]}, {"core_id": "CORE-000356", "message": "At least one Required variable has a null value", "executability": "fully executable", "dataset": "ae.json", "USUBJID": "", "row": 25, "SEQ": "", "variables": ["variable_name", "variable_value"], "values": ["AEDECOD", "null"]}, {"core_id": "CORE-000356", "message": "At least one Required variable has a null value", "executability": "fully executable", "dataset": "ae.json", "USUBJID": "", "row": 26, "SEQ": "", "variables": ["variable_name", "variable_value"], "values": ["AEDECOD", "null"]}, {"core_id": "CORE-000356", "message": "At least one Required variable has a null value", "executability": "fully executable", "dataset": "ae.json", "USUBJID": "", "row": 27, "SEQ": "", "variables": ["variable_name", "variable_value"], "values": ["AEDECOD", "null"]}, {"core_id": "CORE-000356", "message": "At least one Required variable has a null value", "executability": "fully executable", "dataset": "ae.json", "USUBJID": "", "row": 28, "SEQ": "", "variables": ["variable_name", "variable_value"], "values": ["AEDECOD", "null"]}, {"core_id": "CORE-000356", "message": "At least one Required variable has a null value", "executability": "fully executable", "dataset": "ae.json", "USUBJID": "", "row": 29, "SEQ": "", "variables": ["variable_name", "variable_value"], "values": ["AEDECOD", "null"]}, {"core_id": "CORE-000356", "message": "At least one Required variable has a null value", "executability": "fully executable", "dataset": "ae.json", "USUBJID": "", "row": 30, "SEQ": "", "variables": ["variable_name", "variable_value"], "values": ["AEDECOD", "null"]}, {"core_id": "CORE-000356", "message": "At least one Required variable has a null value", "executability": "fully executable", "dataset": "ae.json", "USUBJID": "", "row": 31, "SEQ": "", "variables": ["variable_name", "variable_value"], "values": ["AEDECOD", "null"]}, {"core_id": "CORE-000356", "message": "At least one Required variable has a null value", "executability": "fully executable", "dataset": "ae.json", "USUBJID": "", "row": 32, "SEQ": "", "variables": ["variable_name", "variable_value"], "values": ["AEDECOD", "null"]}, {"core_id": "CORE-000356", "message": "At least one Required variable has a null value", "executability": "fully executable", "dataset": "ae.json", "USUBJID": "", "row": 33, "SEQ": "", "variables": ["variable_name", "variable_value"], "values": ["AEDECOD", "null"]}, {"core_id": "CORE-000356", "message": "At least one Required variable has a null value", "executability": "fully executable", "dataset": "ae.json", "USUBJID": "", "row": 34, "SEQ": "", "variables": ["variable_name", "variable_value"], "values": ["AEDECOD", "null"]}, {"core_id": "CORE-000356", "message": "At least one Required variable has a null value", "executability": "fully executable", "dataset": "ae.json", "USUBJID": "", "row": 35, "SEQ": "", "variables": ["variable_name", "variable_value"], "values": ["AEDECOD", "null"]}, {"core_id": "CORE-000356", "message": "At least one Required variable has a null value", "executability": "fully executable", "dataset": "ae.json", "USUBJID": "", "row": 36, "SEQ": "", "variables": ["variable_name", "variable_value"], "values": ["AEDECOD", "null"]}, {"core_id": "CORE-000356", "message": "At least one Required variable has a null value", "executability": "fully executable", "dataset": "ae.json", "USUBJID": "", "row": 37, "SEQ": "", "variables": ["variable_name", "variable_value"], "values": ["AEDECOD", "null"]}, {"core_id": "CORE-000356", "message": "At least one Required variable has a null value", "executability": "fully executable", "dataset": "ae.json", "USUBJID": "", "row": 38, "SEQ": "", "variables": ["variable_name", "variable_value"], "values": ["AEDECOD", "null"]}, {"core_id": "CORE-000356", "message": "At least one Required variable has a null value", "executability": "fully executable", "dataset": "ae.json", "USUBJID": "", "row": 39, "SEQ": "", "variables": ["variable_name", "variable_value"], "values": ["AEDECOD", "null"]}, {"core_id": "CORE-000356", "message": "At least one Required variable has a null value", "executability": "fully executable", "dataset": "ae.json", "USUBJID": "", "row": 40, "SEQ": "", "variables": ["variable_name", "variable_value"], "values": ["AEDECOD", "null"]}, {"core_id": "CORE-000356", "message": "At least one Required variable has a null value", "executability": "fully executable", "dataset": "ae.json", "USUBJID": "", "row": 41, "SEQ": "", "variables": ["variable_name", "variable_value"], "values": ["AEDECOD", "null"]}, {"core_id": "CORE-000356", "message": "At least one Required variable has a null value", "executability": "fully executable", "dataset": "ae.json", "USUBJID": "", "row": 42, "SEQ": "", "variables": ["variable_name", "variable_value"], "values": ["AEDECOD", "null"]}, {"core_id": "CORE-000356", "message": "At least one Required variable has a null value", "executability": "fully executable", "dataset": "ae.json", "USUBJID": "", "row": 43, "SEQ": "", "variables": ["variable_name", "variable_value"], "values": ["AEDECOD", "null"]}, {"core_id": "CORE-000356", "message": "At least one Required variable has a null value", "executability": "fully executable", "dataset": "ae.json", "USUBJID": "", "row": 44, "SEQ": "", "variables": ["variable_name", "variable_value"], "values": ["AEDECOD", "null"]}, {"core_id": "CORE-000356", "message": "At least one Required variable has a null value", "executability": "fully executable", "dataset": "ae.json", "USUBJID": "", "row": 45, "SEQ": "", "variables": ["variable_name", "variable_value"], "values": ["AEDECOD", "null"]}, {"core_id": "CORE-000356", "message": "At least one Required variable has a null value", "executability": "fully executable", "dataset": "ae.json", "USUBJID": "", "row": 46, "SEQ": "", "variables": ["variable_name", "variable_value"], "values": ["AEDECOD", "null"]}, {"core_id": "CORE-000356", "message": "At least one Required variable has a null value", "executability": "fully executable", "dataset": "ae.json", "USUBJID": "", "row": 47, "SEQ": "", "variables": ["variable_name", "variable_value"], "values": ["AEDECOD", "null"]}, {"core_id": "CORE-000356", "message": "At least one Required variable has a null value", "executability": "fully executable", "dataset": "ae.json", "USUBJID": "", "row": 48, "SEQ": "", "variables": ["variable_name", "variable_value"], "values": ["AEDECOD", "null"]}, {"core_id": "CORE-000356", "message": "At least one Required variable has a null value", "executability": "fully executable", "dataset": "ae.json", "USUBJID": "", "row": 49, "SEQ": "", "variables": ["variable_name", "variable_value"], "values": ["AEDECOD", "null"]}, {"core_id": "CORE-000356", "message": "At least one Required variable has a null value", "executability": "fully executable", "dataset": "ae.json", "USUBJID": "", "row": 50, "SEQ": "", "variables": ["variable_name", "variable_value"], "values": ["AEDECOD", "null"]}, {"core_id": "CORE-000356", "message": "At least one Required variable has a null value", "executability": "fully executable", "dataset": "ae.json", "USUBJID": "", "row": 51, "SEQ": "", "variables": ["variable_name", "variable_value"], "values": ["AEDECOD", "null"]}, {"core_id": "CORE-000356", "message": "At least one Required variable has a null value", "executability": "fully executable", "dataset": "ae.json", "USUBJID": "", "row": 52, "SEQ": "", "variables": ["variable_name", "variable_value"], "values": ["AEDECOD", "null"]}, {"core_id": "CORE-000356", "message": "At least one Required variable has a null value", "executability": "fully executable", "dataset": "ae.json", "USUBJID": "", "row": 53, "SEQ": "", "variables": ["variable_name", "variable_value"], "values": ["AEDECOD", "null"]}, {"core_id": "CORE-000356", "message": "At least one Required variable has a null value", "executability": "fully executable", "dataset": "ae.json", "USUBJID": "", "row": 54, "SEQ": "", "variables": ["variable_name", "variable_value"], "values": ["AEDECOD", "null"]}, {"core_id": "CORE-000356", "message": "At least one Required variable has a null value", "executability": "fully executable", "dataset": "ae.json", "USUBJID": "", "row": 55, "SEQ": "", "variables": ["variable_name", "variable_value"], "values": ["AEDECOD", "null"]}, {"core_id": "CORE-000356", "message": "At least one Required variable has a null value", "executability": "fully executable", "dataset": "ae.json", "USUBJID": "", "row": 56, "SEQ": "", "variables": ["variable_name", "variable_value"], "values": ["AEDECOD", "null"]}, {"core_id": "CORE-000356", "message": "At least one Required variable has a null value", "executability": "fully executable", "dataset": "ae.json", "USUBJID": "", "row": 57, "SEQ": "", "variables": ["variable_name", "variable_value"], "values": ["AEDECOD", "null"]}, {"core_id": "CORE-000356", "message": "At least one Required variable has a null value", "executability": "fully executable", "dataset": "ae.json", "USUBJID": "", "row": 58, "SEQ": "", "variables": ["variable_name", "variable_value"], "values": ["AEDECOD", "null"]}, {"core_id": "CORE-000356", "message": "At least one Required variable has a null value", "executability": "fully executable", "dataset": "ae.json", "USUBJID": "", "row": 59, "SEQ": "", "variables": ["variable_name", "variable_value"], "values": ["AEDECOD", "null"]}, {"core_id": "CORE-000356", "message": "At least one Required variable has a null value", "executability": "fully executable", "dataset": "ae.json", "USUBJID": "", "row": 60, "SEQ": "", "variables": ["variable_name", "variable_value"], "values": ["AEDECOD", "null"]}, {"core_id": "CORE-000356", "message": "At least one Required variable has a null value", "executability": "fully executable", "dataset": "ae.json", "USUBJID": "", "row": 61, "SEQ": "", "variables": ["variable_name", "variable_value"], "values": ["AEDECOD", "null"]}, {"core_id": "CORE-000356", "message": "At least one Required variable has a null value", "executability": "fully executable", "dataset": "ae.json", "USUBJID": "", "row": 62, "SEQ": "", "variables": ["variable_name", "variable_value"], "values": ["AEDECOD", "null"]}, {"core_id": "CORE-000356", "message": "At least one Required variable has a null value", "executability": "fully executable", "dataset": "ae.json", "USUBJID": "", "row": 63, "SEQ": "", "variables": ["variable_name", "variable_value"], "values": ["AEDECOD", "null"]}, {"core_id": "CORE-000356", "message": "At least one Required variable has a null value", "executability": "fully executable", "dataset": "ae.json", "USUBJID": "", "row": 64, "SEQ": "", "variables": ["variable_name", "variable_value"], "values": ["AEDECOD", "null"]}, {"core_id": "CORE-000356", "message": "At least one Required variable has a null value", "executability": "fully executable", "dataset": "ae.json", "USUBJID": "", "row": 65, "SEQ": "", "variables": ["variable_name", "variable_value"], "values": ["AEDECOD", "null"]}, {"core_id": "CORE-000356", "message": "At least one Required variable has a null value", "executability": "fully executable", "dataset": "ae.json", "USUBJID": "", "row": 66, "SEQ": "", "variables": ["variable_name", "variable_value"], "values": ["AEDECOD", "null"]}, {"core_id": "CORE-000356", "message": "At least one Required variable has a null value", "executability": "fully executable", "dataset": "ae.json", "USUBJID": "", "row": 67, "SEQ": "", "variables": ["variable_name", "variable_value"], "values": ["AEDECOD", "null"]}, {"core_id": "CORE-000356", "message": "At least one Required variable has a null value", "executability": "fully executable", "dataset": "ae.json", "USUBJID": "", "row": 68, "SEQ": "", "variables": ["variable_name", "variable_value"], "values": ["AEDECOD", "null"]}, {"core_id": "CORE-000356", "message": "At least one Required variable has a null value", "executability": "fully executable", "dataset": "ae.json", "USUBJID": "", "row": 69, "SEQ": "", "variables": ["variable_name", "variable_value"], "values": ["AEDECOD", "null"]}, {"core_id": "CORE-000356", "message": "At least one Required variable has a null value", "executability": "fully executable", "dataset": "ae.json", "USUBJID": "", "row": 70, "SEQ": "", "variables": ["variable_name", "variable_value"], "values": ["AEDECOD", "null"]}, {"core_id": "CORE-000356", "message": "At least one Required variable has a null value", "executability": "fully executable", "dataset": "ae.json", "USUBJID": "", "row": 71, "SEQ": "", "variables": ["variable_name", "variable_value"], "values": ["AEDECOD", "null"]}, {"core_id": "CORE-000356", "message": "At least one Required variable has a null value", "executability": "fully executable", "dataset": "ae.json", "USUBJID": "", "row": 72, "SEQ": "", "variables": ["variable_name", "variable_value"], "values": ["AEDECOD", "null"]}, {"core_id": "CORE-000356", "message": "At least one Required variable has a null value", "executability": "fully executable", "dataset": "ae.json", "USUBJID": "", "row": 73, "SEQ": "", "variables": ["variable_name", "variable_value"], "values": ["AEDECOD", "null"]}, {"core_id": "CORE-000356", "message": "At least one Required variable has a null value", "executability": "fully executable", "dataset": "ae.json", "USUBJID": "", "row": 74, "SEQ": "", "variables": ["variable_name", "variable_value"], "values": ["AEDECOD", "null"]}, {"core_id": "CORE-000358", "message": "LNKGRP variable is not found in any of the other domains.", "executability": "fully executable", "dataset": "fa.json", "USUBJID": "", "row": "", "SEQ": "", "variables": ["$VARIABLE_COUNT", "FALNKGRP"], "values": ["1", "1"]}, {"core_id": "CORE-000539", "message": "Split dataset is present but the two-Letter parent domain is missing.", "executability": "fully executable", "dataset": "qsph.json", "USUBJID": "", "row": 1, "SEQ": "", "variables": ["$list_dataset_names", "dataset_name"], "values": ["['DM', 'CM', 'DI', 'SUPPEC', 'TV', 'AE', 'EX', 'OE', 'SUPPDM', 'TE', 'DS', 'FT', 'SV', 'QSSL', 'DD', 'VS', 'RELREC', 'TA', 'TI', 'RS', 'QSPH', 'MH', 'LB', 'EC', 'TS', 'FA', 'IE', 'SE']", "QSPH"]}, {"core_id": "CORE-000539", "message": "Split dataset is present but the two-Letter parent domain is missing.", "executability": "fully executable", "dataset": "qssl.json", "USUBJID": "", "row": 1, "SEQ": "", "variables": ["$list_dataset_names", "dataset_name"], "values": ["['DM', 'CM', 'DI', 'SUPPEC', 'TV', 'AE', 'EX', 'OE', 'SUPPDM', 'TE', 'DS', 'FT', 'SV', 'QSSL', 'DD', 'VS', 'RELREC', 'TA', 'TI', 'RS', 'QSPH', 'MH', 'LB', 'EC', 'TS', 'FA', 'IE', 'SE']", "QSSL"]}, {"core_id": "CORE-000720", "message": "FTDTC is greater than RFPENDTC", "executability": "fully executable", "dataset": "ft.json", "USUBJID": "CDISC001", "row": 273, "SEQ": 273, "variables": ["FTDTC", "RFPENDTC"], "values": ["2013-05-20T12:00", "2013-05-20"]}, {"core_id": "CORE-000720", "message": "FTDTC is greater than RFPENDTC", "executability": "fully executable", "dataset": "ft.json", "USUBJID": "CDISC001", "row": 274, "SEQ": 274, "variables": ["FTDTC", "RFPENDTC"], "values": ["2013-05-20T12:00", "2013-05-20"]}, {"core_id": "CORE-000720", "message": "FTDTC is greater than RFPENDTC", "executability": "fully executable", "dataset": "ft.json", "USUBJID": "CDISC001", "row": 275, "SEQ": 275, "variables": ["FTDTC", "RFPENDTC"], "values": ["2013-05-20T12:00", "2013-05-20"]}, {"core_id": "CORE-000720", "message": "FTDTC is greater than RFPENDTC", "executability": "fully executable", "dataset": "ft.json", "USUBJID": "CDISC001", "row": 276, "SEQ": 276, "variables": ["FTDTC", "RFPENDTC"], "values": ["2013-05-20T12:00", "2013-05-20"]}, {"core_id": "CORE-000720", "message": "FTDTC is greater than RFPENDTC", "executability": "fully executable", "dataset": "ft.json", "USUBJID": "CDISC001", "row": 277, "SEQ": 277, "variables": ["FTDTC", "RFPENDTC"], "values": ["2013-05-20T12:00", "2013-05-20"]}, {"core_id": "CORE-000720", "message": "FTDTC is greater than RFPENDTC", "executability": "fully executable", "dataset": "ft.json", "USUBJID": "CDISC001", "row": 278, "SEQ": 278, "variables": ["FTDTC", "RFPENDTC"], "values": ["2013-05-20T12:00", "2013-05-20"]}, {"core_id": "CORE-000720", "message": "FTDTC is greater than RFPENDTC", "executability": "fully executable", "dataset": "ft.json", "USUBJID": "CDISC001", "row": 279, "SEQ": 279, "variables": ["FTDTC", "RFPENDTC"], "values": ["2013-05-20T12:00", "2013-05-20"]}, {"core_id": "CORE-000720", "message": "FTDTC is greater than RFPENDTC", "executability": "fully executable", "dataset": "ft.json", "USUBJID": "CDISC001", "row": 280, "SEQ": 280, "variables": ["FTDTC", "RFPENDTC"], "values": ["2013-05-20T12:00", "2013-05-20"]}, {"core_id": "CORE-000720", "message": "FTDTC is greater than RFPENDTC", "executability": "fully executable", "dataset": "ft.json", "USUBJID": "CDISC001", "row": 281, "SEQ": 281, "variables": ["FTDTC", "RFPENDTC"], "values": ["2013-05-20T12:00", "2013-05-20"]}, {"core_id": "CORE-000720", "message": "FTDTC is greater than RFPENDTC", "executability": "fully executable", "dataset": "ft.json", "USUBJID": "CDISC001", "row": 282, "SEQ": 282, "variables": ["FTDTC", "RFPENDTC"], "values": ["2013-05-20T12:00", "2013-05-20"]}, {"core_id": "CORE-000720", "message": "FTDTC is greater than RFPENDTC", "executability": "fully executable", "dataset": "ft.json", "USUBJID": "CDISC001", "row": 283, "SEQ": 283, "variables": ["FTDTC", "RFPENDTC"], "values": ["2013-05-20T12:00", "2013-05-20"]}, {"core_id": "CORE-000720", "message": "FTDTC is greater than RFPENDTC", "executability": "fully executable", "dataset": "ft.json", "USUBJID": "CDISC001", "row": 284, "SEQ": 284, "variables": ["FTDTC", "RFPENDTC"], "values": ["2013-05-20T12:00", "2013-05-20"]}, {"core_id": "CORE-000720", "message": "FTDTC is greater than RFPENDTC", "executability": "fully executable", "dataset": "ft.json", "USUBJID": "CDISC001", "row": 285, "SEQ": 285, "variables": ["FTDTC", "RFPENDTC"], "values": ["2013-05-20T12:00", "2013-05-20"]}, {"core_id": "CORE-000720", "message": "FTDTC is greater than RFPENDTC", "executability": "fully executable", "dataset": "ft.json", "USUBJID": "CDISC001", "row": 286, "SEQ": 286, "variables": ["FTDTC", "RFPENDTC"], "values": ["2013-05-20T12:00", "2013-05-20"]}, {"core_id": "CORE-000720", "message": "FTDTC is greater than RFPENDTC", "executability": "fully executable", "dataset": "ft.json", "USUBJID": "CDISC001", "row": 287, "SEQ": 287, "variables": ["FTDTC", "RFPENDTC"], "values": ["2013-05-20T12:00", "2013-05-20"]}, {"core_id": "CORE-000720", "message": "FTDTC is greater than RFPENDTC", "executability": "fully executable", "dataset": "ft.json", "USUBJID": "CDISC001", "row": 288, "SEQ": 288, "variables": ["FTDTC", "RFPENDTC"], "values": ["2013-05-20T12:00", "2013-05-20"]}, {"core_id": "CORE-000720", "message": "FTDTC is greater than RFPENDTC", "executability": "fully executable", "dataset": "ft.json", "USUBJID": "CDISC001", "row": 289, "SEQ": 289, "variables": ["FTDTC", "RFPENDTC"], "values": ["2013-05-20T12:00", "2013-05-20"]}, {"core_id": "CORE-000720", "message": "FTDTC is greater than RFPENDTC", "executability": "fully executable", "dataset": "ft.json", "USUBJID": "CDISC001", "row": 290, "SEQ": 290, "variables": ["FTDTC", "RFPENDTC"], "values": ["2013-05-20T12:05", "2013-05-20"]}, {"core_id": "CORE-000720", "message": "FTDTC is greater than RFPENDTC", "executability": "fully executable", "dataset": "ft.json", "USUBJID": "CDISC001", "row": 291, "SEQ": 291, "variables": ["FTDTC", "RFPENDTC"], "values": ["2013-05-20T12:05", "2013-05-20"]}, {"core_id": "CORE-000720", "message": "FTDTC is greater than RFPENDTC", "executability": "fully executable", "dataset": "ft.json", "USUBJID": "CDISC001", "row": 292, "SEQ": 292, "variables": ["FTDTC", "RFPENDTC"], "values": ["2013-05-20T12:05", "2013-05-20"]}, {"core_id": "CORE-000720", "message": "FTDTC is greater than RFPENDTC", "executability": "fully executable", "dataset": "ft.json", "USUBJID": "CDISC001", "row": 293, "SEQ": 293, "variables": ["FTDTC", "RFPENDTC"], "values": ["2013-05-20T12:05", "2013-05-20"]}, {"core_id": "CORE-000720", "message": "FTDTC is greater than RFPENDTC", "executability": "fully executable", "dataset": "ft.json", "USUBJID": "CDISC001", "row": 294, "SEQ": 294, "variables": ["FTDTC", "RFPENDTC"], "values": ["2013-05-20T12:05", "2013-05-20"]}, {"core_id": "CORE-000720", "message": "FTDTC is greater than RFPENDTC", "executability": "fully executable", "dataset": "ft.json", "USUBJID": "CDISC001", "row": 295, "SEQ": 295, "variables": ["FTDTC", "RFPENDTC"], "values": ["2013-05-20T12:05", "2013-05-20"]}, {"core_id": "CORE-000720", "message": "FTDTC is greater than RFPENDTC", "executability": "fully executable", "dataset": "ft.json", "USUBJID": "CDISC001", "row": 296, "SEQ": 296, "variables": ["FTDTC", "RFPENDTC"], "values": ["2013-05-20T12:05", "2013-05-20"]}, {"core_id": "CORE-000720", "message": "FTDTC is greater than RFPENDTC", "executability": "fully executable", "dataset": "ft.json", "USUBJID": "CDISC001", "row": 297, "SEQ": 297, "variables": ["FTDTC", "RFPENDTC"], "values": ["2013-05-20T12:05", "2013-05-20"]}, {"core_id": "CORE-000720", "message": "FTDTC is greater than RFPENDTC", "executability": "fully executable", "dataset": "ft.json", "USUBJID": "CDISC001", "row": 298, "SEQ": 298, "variables": ["FTDTC", "RFPENDTC"], "values": ["2013-05-20T12:05", "2013-05-20"]}, {"core_id": "CORE-000720", "message": "FTDTC is greater than RFPENDTC", "executability": "fully executable", "dataset": "ft.json", "USUBJID": "CDISC001", "row": 299, "SEQ": 299, "variables": ["FTDTC", "RFPENDTC"], "values": ["2013-05-20T12:05", "2013-05-20"]}, {"core_id": "CORE-000720", "message": "FTDTC is greater than RFPENDTC", "executability": "fully executable", "dataset": "ft.json", "USUBJID": "CDISC001", "row": 300, "SEQ": 300, "variables": ["FTDTC", "RFPENDTC"], "values": ["2013-05-20T12:05", "2013-05-20"]}, {"core_id": "CORE-000720", "message": "FTDTC is greater than RFPENDTC", "executability": "fully executable", "dataset": "ft.json", "USUBJID": "CDISC001", "row": 301, "SEQ": 301, "variables": ["FTDTC", "RFPENDTC"], "values": ["2013-05-20T12:05", "2013-05-20"]}, {"core_id": "CORE-000720", "message": "FTDTC is greater than RFPENDTC", "executability": "fully executable", "dataset": "ft.json", "USUBJID": "CDISC001", "row": 302, "SEQ": 302, "variables": ["FTDTC", "RFPENDTC"], "values": ["2013-05-20T12:05", "2013-05-20"]}, {"core_id": "CORE-000720", "message": "FTDTC is greater than RFPENDTC", "executability": "fully executable", "dataset": "ft.json", "USUBJID": "CDISC001", "row": 303, "SEQ": 303, "variables": ["FTDTC", "RFPENDTC"], "values": ["2013-05-20T12:05", "2013-05-20"]}, {"core_id": "CORE-000720", "message": "FTDTC is greater than RFPENDTC", "executability": "fully executable", "dataset": "ft.json", "USUBJID": "CDISC001", "row": 304, "SEQ": 304, "variables": ["FTDTC", "RFPENDTC"], "values": ["2013-05-20T12:05", "2013-05-20"]}, {"core_id": "CORE-000720", "message": "FTDTC is greater than RFPENDTC", "executability": "fully executable", "dataset": "ft.json", "USUBJID": "CDISC001", "row": 305, "SEQ": 305, "variables": ["FTDTC", "RFPENDTC"], "values": ["2013-05-20T12:05", "2013-05-20"]}, {"core_id": "CORE-000720", "message": "FTDTC is greater than RFPENDTC", "executability": "fully executable", "dataset": "ft.json", "USUBJID": "CDISC001", "row": 306, "SEQ": 306, "variables": ["FTDTC", "RFPENDTC"], "values": ["2013-05-20T12:05", "2013-05-20"]}, {"core_id": "CORE-000720", "message": "FTDTC is greater than RFPENDTC", "executability": "fully executable", "dataset": "ft.json", "USUBJID": "CDISC001", "row": 307, "SEQ": 307, "variables": ["FTDTC", "RFPENDTC"], "values": ["2013-05-20T12:10", "2013-05-20"]}, {"core_id": "CORE-000720", "message": "FTDTC is greater than RFPENDTC", "executability": "fully executable", "dataset": "ft.json", "USUBJID": "CDISC001", "row": 308, "SEQ": 308, "variables": ["FTDTC", "RFPENDTC"], "values": ["2013-05-20T12:10", "2013-05-20"]}, {"core_id": "CORE-000720", "message": "FTDTC is greater than RFPENDTC", "executability": "fully executable", "dataset": "ft.json", "USUBJID": "CDISC001", "row": 309, "SEQ": 309, "variables": ["FTDTC", "RFPENDTC"], "values": ["2013-05-20T12:10", "2013-05-20"]}, {"core_id": "CORE-000720", "message": "FTDTC is greater than RFPENDTC", "executability": "fully executable", "dataset": "ft.json", "USUBJID": "CDISC001", "row": 310, "SEQ": 310, "variables": ["FTDTC", "RFPENDTC"], "values": ["2013-05-20T12:10", "2013-05-20"]}, {"core_id": "CORE-000720", "message": "FTDTC is greater than RFPENDTC", "executability": "fully executable", "dataset": "ft.json", "USUBJID": "CDISC001", "row": 311, "SEQ": 311, "variables": ["FTDTC", "RFPENDTC"], "values": ["2013-05-20T12:10", "2013-05-20"]}, {"core_id": "CORE-000720", "message": "FTDTC is greater than RFPENDTC", "executability": "fully executable", "dataset": "ft.json", "USUBJID": "CDISC001", "row": 312, "SEQ": 312, "variables": ["FTDTC", "RFPENDTC"], "values": ["2013-05-20T12:10", "2013-05-20"]}, {"core_id": "CORE-000720", "message": "FTDTC is greater than RFPENDTC", "executability": "fully executable", "dataset": "ft.json", "USUBJID": "CDISC001", "row": 313, "SEQ": 313, "variables": ["FTDTC", "RFPENDTC"], "values": ["2013-05-20T12:10", "2013-05-20"]}, {"core_id": "CORE-000720", "message": "FTDTC is greater than RFPENDTC", "executability": "fully executable", "dataset": "ft.json", "USUBJID": "CDISC001", "row": 314, "SEQ": 314, "variables": ["FTDTC", "RFPENDTC"], "values": ["2013-05-20T12:10", "2013-05-20"]}, {"core_id": "CORE-000720", "message": "FTDTC is greater than RFPENDTC", "executability": "fully executable", "dataset": "ft.json", "USUBJID": "CDISC001", "row": 315, "SEQ": 315, "variables": ["FTDTC", "RFPENDTC"], "values": ["2013-05-20T12:10", "2013-05-20"]}, {"core_id": "CORE-000720", "message": "FTDTC is greater than RFPENDTC", "executability": "fully executable", "dataset": "ft.json", "USUBJID": "CDISC001", "row": 316, "SEQ": 316, "variables": ["FTDTC", "RFPENDTC"], "values": ["2013-05-20T12:10", "2013-05-20"]}, {"core_id": "CORE-000720", "message": "FTDTC is greater than RFPENDTC", "executability": "fully executable", "dataset": "ft.json", "USUBJID": "CDISC001", "row": 317, "SEQ": 317, "variables": ["FTDTC", "RFPENDTC"], "values": ["2013-05-20T12:10", "2013-05-20"]}, {"core_id": "CORE-000720", "message": "FTDTC is greater than RFPENDTC", "executability": "fully executable", "dataset": "ft.json", "USUBJID": "CDISC001", "row": 318, "SEQ": 318, "variables": ["FTDTC", "RFPENDTC"], "values": ["2013-05-20T12:10", "2013-05-20"]}, {"core_id": "CORE-000720", "message": "FTDTC is greater than RFPENDTC", "executability": "fully executable", "dataset": "ft.json", "USUBJID": "CDISC001", "row": 319, "SEQ": 319, "variables": ["FTDTC", "RFPENDTC"], "values": ["2013-05-20T12:10", "2013-05-20"]}, {"core_id": "CORE-000720", "message": "FTDTC is greater than RFPENDTC", "executability": "fully executable", "dataset": "ft.json", "USUBJID": "CDISC001", "row": 320, "SEQ": 320, "variables": ["FTDTC", "RFPENDTC"], "values": ["2013-05-20T12:10", "2013-05-20"]}, {"core_id": "CORE-000720", "message": "FTDTC is greater than RFPENDTC", "executability": "fully executable", "dataset": "ft.json", "USUBJID": "CDISC001", "row": 321, "SEQ": 321, "variables": ["FTDTC", "RFPENDTC"], "values": ["2013-05-20T12:10", "2013-05-20"]}, {"core_id": "CORE-000720", "message": "FTDTC is greater than RFPENDTC", "executability": "fully executable", "dataset": "ft.json", "USUBJID": "CDISC001", "row": 322, "SEQ": 322, "variables": ["FTDTC", "RFPENDTC"], "values": ["2013-05-20T12:10", "2013-05-20"]}, {"core_id": "CORE-000720", "message": "FTDTC is greater than RFPENDTC", "executability": "fully executable", "dataset": "ft.json", "USUBJID": "CDISC001", "row": 323, "SEQ": 323, "variables": ["FTDTC", "RFPENDTC"], "values": ["2013-05-20T12:10", "2013-05-20"]}, {"core_id": "CORE-000720", "message": "FTDTC is greater than RFPENDTC", "executability": "fully executable", "dataset": "ft.json", "USUBJID": "CDISC001", "row": 324, "SEQ": 324, "variables": ["FTDTC", "RFPENDTC"], "values": ["2013-05-20T12:15", "2013-05-20"]}, {"core_id": "CORE-000720", "message": "FTDTC is greater than RFPENDTC", "executability": "fully executable", "dataset": "ft.json", "USUBJID": "CDISC001", "row": 325, "SEQ": 325, "variables": ["FTDTC", "RFPENDTC"], "values": ["2013-05-20T12:15", "2013-05-20"]}, {"core_id": "CORE-000720", "message": "FTDTC is greater than RFPENDTC", "executability": "fully executable", "dataset": "ft.json", "USUBJID": "CDISC001", "row": 326, "SEQ": 326, "variables": ["FTDTC", "RFPENDTC"], "values": ["2013-05-20T12:15", "2013-05-20"]}, {"core_id": "CORE-000720", "message": "FTDTC is greater than RFPENDTC", "executability": "fully executable", "dataset": "ft.json", "USUBJID": "CDISC001", "row": 327, "SEQ": 327, "variables": ["FTDTC", "RFPENDTC"], "values": ["2013-05-20T12:15", "2013-05-20"]}, {"core_id": "CORE-000720", "message": "FTDTC is greater than RFPENDTC", "executability": "fully executable", "dataset": "ft.json", "USUBJID": "CDISC001", "row": 328, "SEQ": 328, "variables": ["FTDTC", "RFPENDTC"], "values": ["2013-05-20T12:15", "2013-05-20"]}, {"core_id": "CORE-000720", "message": "FTDTC is greater than RFPENDTC", "executability": "fully executable", "dataset": "ft.json", "USUBJID": "CDISC001", "row": 329, "SEQ": 329, "variables": ["FTDTC", "RFPENDTC"], "values": ["2013-05-20T12:15", "2013-05-20"]}, {"core_id": "CORE-000720", "message": "FTDTC is greater than RFPENDTC", "executability": "fully executable", "dataset": "ft.json", "USUBJID": "CDISC001", "row": 330, "SEQ": 330, "variables": ["FTDTC", "RFPENDTC"], "values": ["2013-05-20T12:15", "2013-05-20"]}, {"core_id": "CORE-000720", "message": "FTDTC is greater than RFPENDTC", "executability": "fully executable", "dataset": "ft.json", "USUBJID": "CDISC001", "row": 331, "SEQ": 331, "variables": ["FTDTC", "RFPENDTC"], "values": ["2013-05-20T12:15", "2013-05-20"]}, {"core_id": "CORE-000720", "message": "FTDTC is greater than RFPENDTC", "executability": "fully executable", "dataset": "ft.json", "USUBJID": "CDISC001", "row": 332, "SEQ": 332, "variables": ["FTDTC", "RFPENDTC"], "values": ["2013-05-20T12:15", "2013-05-20"]}, {"core_id": "CORE-000720", "message": "FTDTC is greater than RFPENDTC", "executability": "fully executable", "dataset": "ft.json", "USUBJID": "CDISC001", "row": 333, "SEQ": 333, "variables": ["FTDTC", "RFPENDTC"], "values": ["2013-05-20T12:15", "2013-05-20"]}, {"core_id": "CORE-000720", "message": "FTDTC is greater than RFPENDTC", "executability": "fully executable", "dataset": "ft.json", "USUBJID": "CDISC001", "row": 334, "SEQ": 334, "variables": ["FTDTC", "RFPENDTC"], "values": ["2013-05-20T12:15", "2013-05-20"]}, {"core_id": "CORE-000720", "message": "FTDTC is greater than RFPENDTC", "executability": "fully executable", "dataset": "ft.json", "USUBJID": "CDISC001", "row": 335, "SEQ": 335, "variables": ["FTDTC", "RFPENDTC"], "values": ["2013-05-20T12:15", "2013-05-20"]}, {"core_id": "CORE-000720", "message": "FTDTC is greater than RFPENDTC", "executability": "fully executable", "dataset": "ft.json", "USUBJID": "CDISC001", "row": 336, "SEQ": 336, "variables": ["FTDTC", "RFPENDTC"], "values": ["2013-05-20T12:15", "2013-05-20"]}, {"core_id": "CORE-000720", "message": "FTDTC is greater than RFPENDTC", "executability": "fully executable", "dataset": "ft.json", "USUBJID": "CDISC001", "row": 337, "SEQ": 337, "variables": ["FTDTC", "RFPENDTC"], "values": ["2013-05-20T12:15", "2013-05-20"]}, {"core_id": "CORE-000720", "message": "FTDTC is greater than RFPENDTC", "executability": "fully executable", "dataset": "ft.json", "USUBJID": "CDISC001", "row": 338, "SEQ": 338, "variables": ["FTDTC", "RFPENDTC"], "values": ["2013-05-20T12:15", "2013-05-20"]}, {"core_id": "CORE-000720", "message": "FTDTC is greater than RFPENDTC", "executability": "fully executable", "dataset": "ft.json", "USUBJID": "CDISC001", "row": 339, "SEQ": 339, "variables": ["FTDTC", "RFPENDTC"], "values": ["2013-05-20T12:15", "2013-05-20"]}, {"core_id": "CORE-000720", "message": "FTDTC is greater than RFPENDTC", "executability": "fully executable", "dataset": "ft.json", "USUBJID": "CDISC001", "row": 340, "SEQ": 340, "variables": ["FTDTC", "RFPENDTC"], "values": ["2013-05-20T12:15", "2013-05-20"]}, {"core_id": "CORE-000720", "message": "FTDTC is greater than RFPENDTC", "executability": "fully executable", "dataset": "ft.json", "USUBJID": "CDISC001", "row": 341, "SEQ": 341, "variables": ["FTDTC", "RFPENDTC"], "values": ["2013-05-20T12:20", "2013-05-20"]}, {"core_id": "CORE-000720", "message": "FTDTC is greater than RFPENDTC", "executability": "fully executable", "dataset": "ft.json", "USUBJID": "CDISC001", "row": 342, "SEQ": 342, "variables": ["FTDTC", "RFPENDTC"], "values": ["2013-05-20T12:20", "2013-05-20"]}, {"core_id": "CORE-000720", "message": "FTDTC is greater than RFPENDTC", "executability": "fully executable", "dataset": "ft.json", "USUBJID": "CDISC001", "row": 343, "SEQ": 343, "variables": ["FTDTC", "RFPENDTC"], "values": ["2013-05-20T12:20", "2013-05-20"]}, {"core_id": "CORE-000720", "message": "FTDTC is greater than RFPENDTC", "executability": "fully executable", "dataset": "ft.json", "USUBJID": "CDISC001", "row": 344, "SEQ": 344, "variables": ["FTDTC", "RFPENDTC"], "values": ["2013-05-20T12:20", "2013-05-20"]}, {"core_id": "CORE-000720", "message": "FTDTC is greater than RFPENDTC", "executability": "fully executable", "dataset": "ft.json", "USUBJID": "CDISC001", "row": 345, "SEQ": 345, "variables": ["FTDTC", "RFPENDTC"], "values": ["2013-05-20T12:20", "2013-05-20"]}, {"core_id": "CORE-000720", "message": "FTDTC is greater than RFPENDTC", "executability": "fully executable", "dataset": "ft.json", "USUBJID": "CDISC001", "row": 346, "SEQ": 346, "variables": ["FTDTC", "RFPENDTC"], "values": ["2013-05-20T12:20", "2013-05-20"]}, {"core_id": "CORE-000720", "message": "FTDTC is greater than RFPENDTC", "executability": "fully executable", "dataset": "ft.json", "USUBJID": "CDISC001", "row": 347, "SEQ": 347, "variables": ["FTDTC", "RFPENDTC"], "values": ["2013-05-20T12:20", "2013-05-20"]}, {"core_id": "CORE-000720", "message": "FTDTC is greater than RFPENDTC", "executability": "fully executable", "dataset": "ft.json", "USUBJID": "CDISC001", "row": 348, "SEQ": 348, "variables": ["FTDTC", "RFPENDTC"], "values": ["2013-05-20T12:20", "2013-05-20"]}, {"core_id": "CORE-000720", "message": "FTDTC is greater than RFPENDTC", "executability": "fully executable", "dataset": "ft.json", "USUBJID": "CDISC001", "row": 349, "SEQ": 349, "variables": ["FTDTC", "RFPENDTC"], "values": ["2013-05-20T12:20", "2013-05-20"]}, {"core_id": "CORE-000720", "message": "FTDTC is greater than RFPENDTC", "executability": "fully executable", "dataset": "ft.json", "USUBJID": "CDISC001", "row": 350, "SEQ": 350, "variables": ["FTDTC", "RFPENDTC"], "values": ["2013-05-20T12:20", "2013-05-20"]}, {"core_id": "CORE-000720", "message": "FTDTC is greater than RFPENDTC", "executability": "fully executable", "dataset": "ft.json", "USUBJID": "CDISC001", "row": 351, "SEQ": 351, "variables": ["FTDTC", "RFPENDTC"], "values": ["2013-05-20T12:20", "2013-05-20"]}, {"core_id": "CORE-000720", "message": "FTDTC is greater than RFPENDTC", "executability": "fully executable", "dataset": "ft.json", "USUBJID": "CDISC001", "row": 352, "SEQ": 352, "variables": ["FTDTC", "RFPENDTC"], "values": ["2013-05-20T12:20", "2013-05-20"]}, {"core_id": "CORE-000720", "message": "FTDTC is greater than RFPENDTC", "executability": "fully executable", "dataset": "ft.json", "USUBJID": "CDISC001", "row": 353, "SEQ": 353, "variables": ["FTDTC", "RFPENDTC"], "values": ["2013-05-20T12:20", "2013-05-20"]}, {"core_id": "CORE-000720", "message": "FTDTC is greater than RFPENDTC", "executability": "fully executable", "dataset": "ft.json", "USUBJID": "CDISC001", "row": 354, "SEQ": 354, "variables": ["FTDTC", "RFPENDTC"], "values": ["2013-05-20T12:20", "2013-05-20"]}, {"core_id": "CORE-000720", "message": "FTDTC is greater than RFPENDTC", "executability": "fully executable", "dataset": "ft.json", "USUBJID": "CDISC001", "row": 355, "SEQ": 355, "variables": ["FTDTC", "RFPENDTC"], "values": ["2013-05-20T12:20", "2013-05-20"]}, {"core_id": "CORE-000720", "message": "FTDTC is greater than RFPENDTC", "executability": "fully executable", "dataset": "ft.json", "USUBJID": "CDISC001", "row": 356, "SEQ": 356, "variables": ["FTDTC", "RFPENDTC"], "values": ["2013-05-20T12:20", "2013-05-20"]}, {"core_id": "CORE-000720", "message": "FTDTC is greater than RFPENDTC", "executability": "fully executable", "dataset": "ft.json", "USUBJID": "CDISC001", "row": 357, "SEQ": 357, "variables": ["FTDTC", "RFPENDTC"], "values": ["2013-05-20T12:20", "2013-05-20"]}, {"core_id": "CORE-000720", "message": "FTDTC is greater than RFPENDTC", "executability": "fully executable", "dataset": "ft.json", "USUBJID": "CDISC001", "row": 358, "SEQ": 358, "variables": ["FTDTC", "RFPENDTC"], "values": ["2013-05-20T12:25", "2013-05-20"]}, {"core_id": "CORE-000720", "message": "FTDTC is greater than RFPENDTC", "executability": "fully executable", "dataset": "ft.json", "USUBJID": "CDISC001", "row": 359, "SEQ": 359, "variables": ["FTDTC", "RFPENDTC"], "values": ["2013-05-20T12:25", "2013-05-20"]}, {"core_id": "CORE-000720", "message": "FTDTC is greater than RFPENDTC", "executability": "fully executable", "dataset": "ft.json", "USUBJID": "CDISC001", "row": 360, "SEQ": 360, "variables": ["FTDTC", "RFPENDTC"], "values": ["2013-05-20T12:25", "2013-05-20"]}, {"core_id": "CORE-000720", "message": "FTDTC is greater than RFPENDTC", "executability": "fully executable", "dataset": "ft.json", "USUBJID": "CDISC001", "row": 361, "SEQ": 361, "variables": ["FTDTC", "RFPENDTC"], "values": ["2013-05-20T12:25", "2013-05-20"]}, {"core_id": "CORE-000720", "message": "FTDTC is greater than RFPENDTC", "executability": "fully executable", "dataset": "ft.json", "USUBJID": "CDISC001", "row": 362, "SEQ": 362, "variables": ["FTDTC", "RFPENDTC"], "values": ["2013-05-20T12:25", "2013-05-20"]}, {"core_id": "CORE-000720", "message": "FTDTC is greater than RFPENDTC", "executability": "fully executable", "dataset": "ft.json", "USUBJID": "CDISC001", "row": 363, "SEQ": 363, "variables": ["FTDTC", "RFPENDTC"], "values": ["2013-05-20T12:25", "2013-05-20"]}, {"core_id": "CORE-000720", "message": "FTDTC is greater than RFPENDTC", "executability": "fully executable", "dataset": "ft.json", "USUBJID": "CDISC001", "row": 364, "SEQ": 364, "variables": ["FTDTC", "RFPENDTC"], "values": ["2013-05-20T12:25", "2013-05-20"]}, {"core_id": "CORE-000720", "message": "FTDTC is greater than RFPENDTC", "executability": "fully executable", "dataset": "ft.json", "USUBJID": "CDISC001", "row": 365, "SEQ": 365, "variables": ["FTDTC", "RFPENDTC"], "values": ["2013-05-20T12:25", "2013-05-20"]}, {"core_id": "CORE-000720", "message": "FTDTC is greater than RFPENDTC", "executability": "fully executable", "dataset": "ft.json", "USUBJID": "CDISC001", "row": 366, "SEQ": 366, "variables": ["FTDTC", "RFPENDTC"], "values": ["2013-05-20T12:25", "2013-05-20"]}, {"core_id": "CORE-000720", "message": "FTDTC is greater than RFPENDTC", "executability": "fully executable", "dataset": "ft.json", "USUBJID": "CDISC001", "row": 367, "SEQ": 367, "variables": ["FTDTC", "RFPENDTC"], "values": ["2013-05-20T12:25", "2013-05-20"]}, {"core_id": "CORE-000720", "message": "FTDTC is greater than RFPENDTC", "executability": "fully executable", "dataset": "ft.json", "USUBJID": "CDISC001", "row": 368, "SEQ": 368, "variables": ["FTDTC", "RFPENDTC"], "values": ["2013-05-20T12:25", "2013-05-20"]}, {"core_id": "CORE-000720", "message": "FTDTC is greater than RFPENDTC", "executability": "fully executable", "dataset": "ft.json", "USUBJID": "CDISC001", "row": 369, "SEQ": 369, "variables": ["FTDTC", "RFPENDTC"], "values": ["2013-05-20T12:25", "2013-05-20"]}, {"core_id": "CORE-000720", "message": "FTDTC is greater than RFPENDTC", "executability": "fully executable", "dataset": "ft.json", "USUBJID": "CDISC001", "row": 370, "SEQ": 370, "variables": ["FTDTC", "RFPENDTC"], "values": ["2013-05-20T12:25", "2013-05-20"]}, {"core_id": "CORE-000720", "message": "FTDTC is greater than RFPENDTC", "executability": "fully executable", "dataset": "ft.json", "USUBJID": "CDISC001", "row": 371, "SEQ": 371, "variables": ["FTDTC", "RFPENDTC"], "values": ["2013-05-20T12:25", "2013-05-20"]}, {"core_id": "CORE-000720", "message": "FTDTC is greater than RFPENDTC", "executability": "fully executable", "dataset": "ft.json", "USUBJID": "CDISC001", "row": 372, "SEQ": 372, "variables": ["FTDTC", "RFPENDTC"], "values": ["2013-05-20T12:25", "2013-05-20"]}, {"core_id": "CORE-000720", "message": "FTDTC is greater than RFPENDTC", "executability": "fully executable", "dataset": "ft.json", "USUBJID": "CDISC001", "row": 373, "SEQ": 373, "variables": ["FTDTC", "RFPENDTC"], "values": ["2013-05-20T12:25", "2013-05-20"]}, {"core_id": "CORE-000720", "message": "FTDTC is greater than RFPENDTC", "executability": "fully executable", "dataset": "ft.json", "USUBJID": "CDISC001", "row": 374, "SEQ": 374, "variables": ["FTDTC", "RFPENDTC"], "values": ["2013-05-20T12:25", "2013-05-20"]}, {"core_id": "CORE-000720", "message": "FTDTC is greater than RFPENDTC", "executability": "fully executable", "dataset": "ft.json", "USUBJID": "CDISC001", "row": 375, "SEQ": 375, "variables": ["FTDTC", "RFPENDTC"], "values": ["2013-05-20T12:30", "2013-05-20"]}, {"core_id": "CORE-000720", "message": "FTDTC is greater than RFPENDTC", "executability": "fully executable", "dataset": "ft.json", "USUBJID": "CDISC001", "row": 376, "SEQ": 376, "variables": ["FTDTC", "RFPENDTC"], "values": ["2013-05-20T12:30", "2013-05-20"]}, {"core_id": "CORE-000720", "message": "FTDTC is greater than RFPENDTC", "executability": "fully executable", "dataset": "ft.json", "USUBJID": "CDISC001", "row": 377, "SEQ": 377, "variables": ["FTDTC", "RFPENDTC"], "values": ["2013-05-20T12:30", "2013-05-20"]}, {"core_id": "CORE-000720", "message": "FTDTC is greater than RFPENDTC", "executability": "fully executable", "dataset": "ft.json", "USUBJID": "CDISC001", "row": 378, "SEQ": 378, "variables": ["FTDTC", "RFPENDTC"], "values": ["2013-05-20T12:30", "2013-05-20"]}, {"core_id": "CORE-000720", "message": "FTDTC is greater than RFPENDTC", "executability": "fully executable", "dataset": "ft.json", "USUBJID": "CDISC001", "row": 379, "SEQ": 379, "variables": ["FTDTC", "RFPENDTC"], "values": ["2013-05-20T12:30", "2013-05-20"]}, {"core_id": "CORE-000720", "message": "FTDTC is greater than RFPENDTC", "executability": "fully executable", "dataset": "ft.json", "USUBJID": "CDISC001", "row": 380, "SEQ": 380, "variables": ["FTDTC", "RFPENDTC"], "values": ["2013-05-20T12:30", "2013-05-20"]}, {"core_id": "CORE-000720", "message": "FTDTC is greater than RFPENDTC", "executability": "fully executable", "dataset": "ft.json", "USUBJID": "CDISC001", "row": 381, "SEQ": 381, "variables": ["FTDTC", "RFPENDTC"], "values": ["2013-05-20T12:30", "2013-05-20"]}, {"core_id": "CORE-000720", "message": "FTDTC is greater than RFPENDTC", "executability": "fully executable", "dataset": "ft.json", "USUBJID": "CDISC001", "row": 382, "SEQ": 382, "variables": ["FTDTC", "RFPENDTC"], "values": ["2013-05-20T12:30", "2013-05-20"]}, {"core_id": "CORE-000720", "message": "FTDTC is greater than RFPENDTC", "executability": "fully executable", "dataset": "ft.json", "USUBJID": "CDISC001", "row": 383, "SEQ": 383, "variables": ["FTDTC", "RFPENDTC"], "values": ["2013-05-20T12:30", "2013-05-20"]}, {"core_id": "CORE-000720", "message": "FTDTC is greater than RFPENDTC", "executability": "fully executable", "dataset": "ft.json", "USUBJID": "CDISC001", "row": 384, "SEQ": 384, "variables": ["FTDTC", "RFPENDTC"], "values": ["2013-05-20T12:30", "2013-05-20"]}, {"core_id": "CORE-000720", "message": "FTDTC is greater than RFPENDTC", "executability": "fully executable", "dataset": "ft.json", "USUBJID": "CDISC001", "row": 385, "SEQ": 385, "variables": ["FTDTC", "RFPENDTC"], "values": ["2013-05-20T12:30", "2013-05-20"]}, {"core_id": "CORE-000720", "message": "FTDTC is greater than RFPENDTC", "executability": "fully executable", "dataset": "ft.json", "USUBJID": "CDISC001", "row": 386, "SEQ": 386, "variables": ["FTDTC", "RFPENDTC"], "values": ["2013-05-20T12:30", "2013-05-20"]}, {"core_id": "CORE-000720", "message": "FTDTC is greater than RFPENDTC", "executability": "fully executable", "dataset": "ft.json", "USUBJID": "CDISC001", "row": 387, "SEQ": 387, "variables": ["FTDTC", "RFPENDTC"], "values": ["2013-05-20T12:30", "2013-05-20"]}, {"core_id": "CORE-000720", "message": "FTDTC is greater than RFPENDTC", "executability": "fully executable", "dataset": "ft.json", "USUBJID": "CDISC001", "row": 388, "SEQ": 388, "variables": ["FTDTC", "RFPENDTC"], "values": ["2013-05-20T12:30", "2013-05-20"]}, {"core_id": "CORE-000720", "message": "FTDTC is greater than RFPENDTC", "executability": "fully executable", "dataset": "ft.json", "USUBJID": "CDISC001", "row": 389, "SEQ": 389, "variables": ["FTDTC", "RFPENDTC"], "values": ["2013-05-20T12:30", "2013-05-20"]}, {"core_id": "CORE-000720", "message": "FTDTC is greater than RFPENDTC", "executability": "fully executable", "dataset": "ft.json", "USUBJID": "CDISC001", "row": 390, "SEQ": 390, "variables": ["FTDTC", "RFPENDTC"], "values": ["2013-05-20T12:30", "2013-05-20"]}, {"core_id": "CORE-000720", "message": "FTDTC is greater than RFPENDTC", "executability": "fully executable", "dataset": "ft.json", "USUBJID": "CDISC001", "row": 391, "SEQ": 391, "variables": ["FTDTC", "RFPENDTC"], "values": ["2013-05-20T12:30", "2013-05-20"]}, {"core_id": "CORE-000720", "message": "FTDTC is greater than RFPENDTC", "executability": "fully executable", "dataset": "ft.json", "USUBJID": "CDISC001", "row": 392, "SEQ": 392, "variables": ["FTDTC", "RFPENDTC"], "values": ["2013-05-20T13:00", "2013-05-20"]}, {"core_id": "CORE-000720", "message": "FTDTC is greater than RFPENDTC", "executability": "fully executable", "dataset": "ft.json", "USUBJID": "CDISC001", "row": 393, "SEQ": 393, "variables": ["FTDTC", "RFPENDTC"], "values": ["2013-05-20T13:00", "2013-05-20"]}, {"core_id": "CORE-000720", "message": "FTDTC is greater than RFPENDTC", "executability": "fully executable", "dataset": "ft.json", "USUBJID": "CDISC001", "row": 394, "SEQ": 394, "variables": ["FTDTC", "RFPENDTC"], "values": ["2013-05-20T13:00", "2013-05-20"]}, {"core_id": "CORE-000720", "message": "FTDTC is greater than RFPENDTC", "executability": "fully executable", "dataset": "ft.json", "USUBJID": "CDISC001", "row": 395, "SEQ": 395, "variables": ["FTDTC", "RFPENDTC"], "values": ["2013-05-20T13:00", "2013-05-20"]}, {"core_id": "CORE-000720", "message": "FTDTC is greater than RFPENDTC", "executability": "fully executable", "dataset": "ft.json", "USUBJID": "CDISC001", "row": 396, "SEQ": 396, "variables": ["FTDTC", "RFPENDTC"], "values": ["2013-05-20T13:00", "2013-05-20"]}, {"core_id": "CORE-000720", "message": "FTDTC is greater than RFPENDTC", "executability": "fully executable", "dataset": "ft.json", "USUBJID": "CDISC001", "row": 397, "SEQ": 397, "variables": ["FTDTC", "RFPENDTC"], "values": ["2013-05-20T13:00", "2013-05-20"]}, {"core_id": "CORE-000720", "message": "FTDTC is greater than RFPENDTC", "executability": "fully executable", "dataset": "ft.json", "USUBJID": "CDISC001", "row": 398, "SEQ": 398, "variables": ["FTDTC", "RFPENDTC"], "values": ["2013-05-20T13:00", "2013-05-20"]}, {"core_id": "CORE-000720", "message": "FTDTC is greater than RFPENDTC", "executability": "fully executable", "dataset": "ft.json", "USUBJID": "CDISC001", "row": 399, "SEQ": 399, "variables": ["FTDTC", "RFPENDTC"], "values": ["2013-05-20T13:00", "2013-05-20"]}, {"core_id": "CORE-000720", "message": "FTDTC is greater than RFPENDTC", "executability": "fully executable", "dataset": "ft.json", "USUBJID": "CDISC001", "row": 400, "SEQ": 400, "variables": ["FTDTC", "RFPENDTC"], "values": ["2013-05-20T13:00", "2013-05-20"]}, {"core_id": "CORE-000720", "message": "FTDTC is greater than RFPENDTC", "executability": "fully executable", "dataset": "ft.json", "USUBJID": "CDISC001", "row": 401, "SEQ": 401, "variables": ["FTDTC", "RFPENDTC"], "values": ["2013-05-20T13:00", "2013-05-20"]}, {"core_id": "CORE-000720", "message": "FTDTC is greater than RFPENDTC", "executability": "fully executable", "dataset": "ft.json", "USUBJID": "CDISC001", "row": 402, "SEQ": 402, "variables": ["FTDTC", "RFPENDTC"], "values": ["2013-05-20T13:00", "2013-05-20"]}, {"core_id": "CORE-000720", "message": "FTDTC is greater than RFPENDTC", "executability": "fully executable", "dataset": "ft.json", "USUBJID": "CDISC001", "row": 403, "SEQ": 403, "variables": ["FTDTC", "RFPENDTC"], "values": ["2013-05-20T13:00", "2013-05-20"]}, {"core_id": "CORE-000720", "message": "FTDTC is greater than RFPENDTC", "executability": "fully executable", "dataset": "ft.json", "USUBJID": "CDISC001", "row": 404, "SEQ": 404, "variables": ["FTDTC", "RFPENDTC"], "values": ["2013-05-20T13:00", "2013-05-20"]}, {"core_id": "CORE-000720", "message": "FTDTC is greater than RFPENDTC", "executability": "fully executable", "dataset": "ft.json", "USUBJID": "CDISC001", "row": 405, "SEQ": 405, "variables": ["FTDTC", "RFPENDTC"], "values": ["2013-05-20T13:00", "2013-05-20"]}, {"core_id": "CORE-000720", "message": "FTDTC is greater than RFPENDTC", "executability": "fully executable", "dataset": "ft.json", "USUBJID": "CDISC001", "row": 406, "SEQ": 406, "variables": ["FTDTC", "RFPENDTC"], "values": ["2013-05-20T13:00", "2013-05-20"]}, {"core_id": "CORE-000720", "message": "FTDTC is greater than RFPENDTC", "executability": "fully executable", "dataset": "ft.json", "USUBJID": "CDISC001", "row": 407, "SEQ": 407, "variables": ["FTDTC", "RFPENDTC"], "values": ["2013-05-20T13:00", "2013-05-20"]}, {"core_id": "CORE-000720", "message": "FTDTC is greater than RFPENDTC", "executability": "fully executable", "dataset": "ft.json", "USUBJID": "CDISC001", "row": 408, "SEQ": 408, "variables": ["FTDTC", "RFPENDTC"], "values": ["2013-05-20T13:00", "2013-05-20"]}, {"core_id": "CORE-000720", "message": "FTDTC is greater than RFPENDTC", "executability": "fully executable", "dataset": "ft.json", "USUBJID": "CDISC003", "row": 1089, "SEQ": 409, "variables": ["FTDTC", "RFPENDTC"], "values": ["2014-02-13T13:00", "2014-02-13"]}, {"core_id": "CORE-000720", "message": "FTDTC is greater than RFPENDTC", "executability": "fully executable", "dataset": "ft.json", "USUBJID": "CDISC003", "row": 1090, "SEQ": 410, "variables": ["FTDTC", "RFPENDTC"], "values": ["2014-02-13T13:00", "2014-02-13"]}, {"core_id": "CORE-000720", "message": "FTDTC is greater than RFPENDTC", "executability": "fully executable", "dataset": "ft.json", "USUBJID": "CDISC003", "row": 1091, "SEQ": 411, "variables": ["FTDTC", "RFPENDTC"], "values": ["2014-02-13T13:00", "2014-02-13"]}, {"core_id": "CORE-000720", "message": "FTDTC is greater than RFPENDTC", "executability": "fully executable", "dataset": "ft.json", "USUBJID": "CDISC003", "row": 1092, "SEQ": 412, "variables": ["FTDTC", "RFPENDTC"], "values": ["2014-02-13T13:00", "2014-02-13"]}, {"core_id": "CORE-000720", "message": "FTDTC is greater than RFPENDTC", "executability": "fully executable", "dataset": "ft.json", "USUBJID": "CDISC003", "row": 1093, "SEQ": 413, "variables": ["FTDTC", "RFPENDTC"], "values": ["2014-02-13T13:00", "2014-02-13"]}, {"core_id": "CORE-000720", "message": "FTDTC is greater than RFPENDTC", "executability": "fully executable", "dataset": "ft.json", "USUBJID": "CDISC003", "row": 1094, "SEQ": 414, "variables": ["FTDTC", "RFPENDTC"], "values": ["2014-02-13T13:00", "2014-02-13"]}, {"core_id": "CORE-000720", "message": "FTDTC is greater than RFPENDTC", "executability": "fully executable", "dataset": "ft.json", "USUBJID": "CDISC003", "row": 1095, "SEQ": 415, "variables": ["FTDTC", "RFPENDTC"], "values": ["2014-02-13T13:00", "2014-02-13"]}, {"core_id": "CORE-000720", "message": "FTDTC is greater than RFPENDTC", "executability": "fully executable", "dataset": "ft.json", "USUBJID": "CDISC003", "row": 1096, "SEQ": 416, "variables": ["FTDTC", "RFPENDTC"], "values": ["2014-02-13T13:00", "2014-02-13"]}, {"core_id": "CORE-000720", "message": "FTDTC is greater than RFPENDTC", "executability": "fully executable", "dataset": "ft.json", "USUBJID": "CDISC003", "row": 1097, "SEQ": 417, "variables": ["FTDTC", "RFPENDTC"], "values": ["2014-02-13T13:00", "2014-02-13"]}, {"core_id": "CORE-000720", "message": "FTDTC is greater than RFPENDTC", "executability": "fully executable", "dataset": "ft.json", "USUBJID": "CDISC003", "row": 1098, "SEQ": 418, "variables": ["FTDTC", "RFPENDTC"], "values": ["2014-02-13T13:00", "2014-02-13"]}, {"core_id": "CORE-000720", "message": "FTDTC is greater than RFPENDTC", "executability": "fully executable", "dataset": "ft.json", "USUBJID": "CDISC003", "row": 1099, "SEQ": 419, "variables": ["FTDTC", "RFPENDTC"], "values": ["2014-02-13T13:00", "2014-02-13"]}, {"core_id": "CORE-000720", "message": "FTDTC is greater than RFPENDTC", "executability": "fully executable", "dataset": "ft.json", "USUBJID": "CDISC003", "row": 1100, "SEQ": 420, "variables": ["FTDTC", "RFPENDTC"], "values": ["2014-02-13T13:00", "2014-02-13"]}, {"core_id": "CORE-000720", "message": "FTDTC is greater than RFPENDTC", "executability": "fully executable", "dataset": "ft.json", "USUBJID": "CDISC003", "row": 1101, "SEQ": 421, "variables": ["FTDTC", "RFPENDTC"], "values": ["2014-02-13T13:00", "2014-02-13"]}, {"core_id": "CORE-000720", "message": "FTDTC is greater than RFPENDTC", "executability": "fully executable", "dataset": "ft.json", "USUBJID": "CDISC003", "row": 1102, "SEQ": 422, "variables": ["FTDTC", "RFPENDTC"], "values": ["2014-02-13T13:00", "2014-02-13"]}, {"core_id": "CORE-000720", "message": "FTDTC is greater than RFPENDTC", "executability": "fully executable", "dataset": "ft.json", "USUBJID": "CDISC003", "row": 1103, "SEQ": 423, "variables": ["FTDTC", "RFPENDTC"], "values": ["2014-02-13T13:00", "2014-02-13"]}, {"core_id": "CORE-000720", "message": "FTDTC is greater than RFPENDTC", "executability": "fully executable", "dataset": "ft.json", "USUBJID": "CDISC003", "row": 1104, "SEQ": 424, "variables": ["FTDTC", "RFPENDTC"], "values": ["2014-02-13T13:00", "2014-02-13"]}, {"core_id": "CORE-000720", "message": "FTDTC is greater than RFPENDTC", "executability": "fully executable", "dataset": "ft.json", "USUBJID": "CDISC003", "row": 1105, "SEQ": 425, "variables": ["FTDTC", "RFPENDTC"], "values": ["2014-02-13T13:00", "2014-02-13"]}, {"core_id": "CORE-000720", "message": "FTDTC is greater than RFPENDTC", "executability": "fully executable", "dataset": "ft.json", "USUBJID": "CDISC003", "row": 1106, "SEQ": 426, "variables": ["FTDTC", "RFPENDTC"], "values": ["2014-02-13T13:05", "2014-02-13"]}, {"core_id": "CORE-000720", "message": "FTDTC is greater than RFPENDTC", "executability": "fully executable", "dataset": "ft.json", "USUBJID": "CDISC003", "row": 1107, "SEQ": 427, "variables": ["FTDTC", "RFPENDTC"], "values": ["2014-02-13T13:05", "2014-02-13"]}, {"core_id": "CORE-000720", "message": "FTDTC is greater than RFPENDTC", "executability": "fully executable", "dataset": "ft.json", "USUBJID": "CDISC003", "row": 1108, "SEQ": 428, "variables": ["FTDTC", "RFPENDTC"], "values": ["2014-02-13T13:05", "2014-02-13"]}, {"core_id": "CORE-000720", "message": "FTDTC is greater than RFPENDTC", "executability": "fully executable", "dataset": "ft.json", "USUBJID": "CDISC003", "row": 1109, "SEQ": 429, "variables": ["FTDTC", "RFPENDTC"], "values": ["2014-02-13T13:05", "2014-02-13"]}, {"core_id": "CORE-000720", "message": "FTDTC is greater than RFPENDTC", "executability": "fully executable", "dataset": "ft.json", "USUBJID": "CDISC003", "row": 1110, "SEQ": 430, "variables": ["FTDTC", "RFPENDTC"], "values": ["2014-02-13T13:05", "2014-02-13"]}, {"core_id": "CORE-000720", "message": "FTDTC is greater than RFPENDTC", "executability": "fully executable", "dataset": "ft.json", "USUBJID": "CDISC003", "row": 1111, "SEQ": 431, "variables": ["FTDTC", "RFPENDTC"], "values": ["2014-02-13T13:05", "2014-02-13"]}, {"core_id": "CORE-000720", "message": "FTDTC is greater than RFPENDTC", "executability": "fully executable", "dataset": "ft.json", "USUBJID": "CDISC003", "row": 1112, "SEQ": 432, "variables": ["FTDTC", "RFPENDTC"], "values": ["2014-02-13T13:05", "2014-02-13"]}, {"core_id": "CORE-000720", "message": "FTDTC is greater than RFPENDTC", "executability": "fully executable", "dataset": "ft.json", "USUBJID": "CDISC003", "row": 1113, "SEQ": 433, "variables": ["FTDTC", "RFPENDTC"], "values": ["2014-02-13T13:05", "2014-02-13"]}, {"core_id": "CORE-000720", "message": "FTDTC is greater than RFPENDTC", "executability": "fully executable", "dataset": "ft.json", "USUBJID": "CDISC003", "row": 1114, "SEQ": 434, "variables": ["FTDTC", "RFPENDTC"], "values": ["2014-02-13T13:05", "2014-02-13"]}, {"core_id": "CORE-000720", "message": "FTDTC is greater than RFPENDTC", "executability": "fully executable", "dataset": "ft.json", "USUBJID": "CDISC003", "row": 1115, "SEQ": 435, "variables": ["FTDTC", "RFPENDTC"], "values": ["2014-02-13T13:05", "2014-02-13"]}, {"core_id": "CORE-000720", "message": "FTDTC is greater than RFPENDTC", "executability": "fully executable", "dataset": "ft.json", "USUBJID": "CDISC003", "row": 1116, "SEQ": 436, "variables": ["FTDTC", "RFPENDTC"], "values": ["2014-02-13T13:05", "2014-02-13"]}, {"core_id": "CORE-000720", "message": "FTDTC is greater than RFPENDTC", "executability": "fully executable", "dataset": "ft.json", "USUBJID": "CDISC003", "row": 1117, "SEQ": 437, "variables": ["FTDTC", "RFPENDTC"], "values": ["2014-02-13T13:05", "2014-02-13"]}, {"core_id": "CORE-000720", "message": "FTDTC is greater than RFPENDTC", "executability": "fully executable", "dataset": "ft.json", "USUBJID": "CDISC003", "row": 1118, "SEQ": 438, "variables": ["FTDTC", "RFPENDTC"], "values": ["2014-02-13T13:05", "2014-02-13"]}, {"core_id": "CORE-000720", "message": "FTDTC is greater than RFPENDTC", "executability": "fully executable", "dataset": "ft.json", "USUBJID": "CDISC003", "row": 1119, "SEQ": 439, "variables": ["FTDTC", "RFPENDTC"], "values": ["2014-02-13T13:05", "2014-02-13"]}, {"core_id": "CORE-000720", "message": "FTDTC is greater than RFPENDTC", "executability": "fully executable", "dataset": "ft.json", "USUBJID": "CDISC003", "row": 1120, "SEQ": 440, "variables": ["FTDTC", "RFPENDTC"], "values": ["2014-02-13T13:05", "2014-02-13"]}, {"core_id": "CORE-000720", "message": "FTDTC is greater than RFPENDTC", "executability": "fully executable", "dataset": "ft.json", "USUBJID": "CDISC003", "row": 1121, "SEQ": 441, "variables": ["FTDTC", "RFPENDTC"], "values": ["2014-02-13T13:05", "2014-02-13"]}, {"core_id": "CORE-000720", "message": "FTDTC is greater than RFPENDTC", "executability": "fully executable", "dataset": "ft.json", "USUBJID": "CDISC003", "row": 1122, "SEQ": 442, "variables": ["FTDTC", "RFPENDTC"], "values": ["2014-02-13T13:05", "2014-02-13"]}, {"core_id": "CORE-000720", "message": "FTDTC is greater than RFPENDTC", "executability": "fully executable", "dataset": "ft.json", "USUBJID": "CDISC003", "row": 1123, "SEQ": 443, "variables": ["FTDTC", "RFPENDTC"], "values": ["2014-02-13T13:10", "2014-02-13"]}, {"core_id": "CORE-000720", "message": "FTDTC is greater than RFPENDTC", "executability": "fully executable", "dataset": "ft.json", "USUBJID": "CDISC003", "row": 1124, "SEQ": 444, "variables": ["FTDTC", "RFPENDTC"], "values": ["2014-02-13T13:10", "2014-02-13"]}, {"core_id": "CORE-000720", "message": "FTDTC is greater than RFPENDTC", "executability": "fully executable", "dataset": "ft.json", "USUBJID": "CDISC003", "row": 1125, "SEQ": 445, "variables": ["FTDTC", "RFPENDTC"], "values": ["2014-02-13T13:10", "2014-02-13"]}, {"core_id": "CORE-000720", "message": "FTDTC is greater than RFPENDTC", "executability": "fully executable", "dataset": "ft.json", "USUBJID": "CDISC003", "row": 1126, "SEQ": 446, "variables": ["FTDTC", "RFPENDTC"], "values": ["2014-02-13T13:10", "2014-02-13"]}, {"core_id": "CORE-000720", "message": "FTDTC is greater than RFPENDTC", "executability": "fully executable", "dataset": "ft.json", "USUBJID": "CDISC003", "row": 1127, "SEQ": 447, "variables": ["FTDTC", "RFPENDTC"], "values": ["2014-02-13T13:10", "2014-02-13"]}, {"core_id": "CORE-000720", "message": "FTDTC is greater than RFPENDTC", "executability": "fully executable", "dataset": "ft.json", "USUBJID": "CDISC003", "row": 1128, "SEQ": 448, "variables": ["FTDTC", "RFPENDTC"], "values": ["2014-02-13T13:10", "2014-02-13"]}, {"core_id": "CORE-000720", "message": "FTDTC is greater than RFPENDTC", "executability": "fully executable", "dataset": "ft.json", "USUBJID": "CDISC003", "row": 1129, "SEQ": 449, "variables": ["FTDTC", "RFPENDTC"], "values": ["2014-02-13T13:10", "2014-02-13"]}, {"core_id": "CORE-000720", "message": "FTDTC is greater than RFPENDTC", "executability": "fully executable", "dataset": "ft.json", "USUBJID": "CDISC003", "row": 1130, "SEQ": 450, "variables": ["FTDTC", "RFPENDTC"], "values": ["2014-02-13T13:10", "2014-02-13"]}, {"core_id": "CORE-000720", "message": "FTDTC is greater than RFPENDTC", "executability": "fully executable", "dataset": "ft.json", "USUBJID": "CDISC003", "row": 1131, "SEQ": 451, "variables": ["FTDTC", "RFPENDTC"], "values": ["2014-02-13T13:10", "2014-02-13"]}, {"core_id": "CORE-000720", "message": "FTDTC is greater than RFPENDTC", "executability": "fully executable", "dataset": "ft.json", "USUBJID": "CDISC003", "row": 1132, "SEQ": 452, "variables": ["FTDTC", "RFPENDTC"], "values": ["2014-02-13T13:10", "2014-02-13"]}, {"core_id": "CORE-000720", "message": "FTDTC is greater than RFPENDTC", "executability": "fully executable", "dataset": "ft.json", "USUBJID": "CDISC003", "row": 1133, "SEQ": 453, "variables": ["FTDTC", "RFPENDTC"], "values": ["2014-02-13T13:10", "2014-02-13"]}, {"core_id": "CORE-000720", "message": "FTDTC is greater than RFPENDTC", "executability": "fully executable", "dataset": "ft.json", "USUBJID": "CDISC003", "row": 1134, "SEQ": 454, "variables": ["FTDTC", "RFPENDTC"], "values": ["2014-02-13T13:10", "2014-02-13"]}, {"core_id": "CORE-000720", "message": "FTDTC is greater than RFPENDTC", "executability": "fully executable", "dataset": "ft.json", "USUBJID": "CDISC003", "row": 1135, "SEQ": 455, "variables": ["FTDTC", "RFPENDTC"], "values": ["2014-02-13T13:10", "2014-02-13"]}, {"core_id": "CORE-000720", "message": "FTDTC is greater than RFPENDTC", "executability": "fully executable", "dataset": "ft.json", "USUBJID": "CDISC003", "row": 1136, "SEQ": 456, "variables": ["FTDTC", "RFPENDTC"], "values": ["2014-02-13T13:10", "2014-02-13"]}, {"core_id": "CORE-000720", "message": "FTDTC is greater than RFPENDTC", "executability": "fully executable", "dataset": "ft.json", "USUBJID": "CDISC003", "row": 1137, "SEQ": 457, "variables": ["FTDTC", "RFPENDTC"], "values": ["2014-02-13T13:10", "2014-02-13"]}, {"core_id": "CORE-000720", "message": "FTDTC is greater than RFPENDTC", "executability": "fully executable", "dataset": "ft.json", "USUBJID": "CDISC003", "row": 1138, "SEQ": 458, "variables": ["FTDTC", "RFPENDTC"], "values": ["2014-02-13T13:10", "2014-02-13"]}, {"core_id": "CORE-000720", "message": "FTDTC is greater than RFPENDTC", "executability": "fully executable", "dataset": "ft.json", "USUBJID": "CDISC003", "row": 1139, "SEQ": 459, "variables": ["FTDTC", "RFPENDTC"], "values": ["2014-02-13T13:10", "2014-02-13"]}, {"core_id": "CORE-000720", "message": "FTDTC is greater than RFPENDTC", "executability": "fully executable", "dataset": "ft.json", "USUBJID": "CDISC003", "row": 1140, "SEQ": 460, "variables": ["FTDTC", "RFPENDTC"], "values": ["2014-02-13T13:15", "2014-02-13"]}, {"core_id": "CORE-000720", "message": "FTDTC is greater than RFPENDTC", "executability": "fully executable", "dataset": "ft.json", "USUBJID": "CDISC003", "row": 1141, "SEQ": 461, "variables": ["FTDTC", "RFPENDTC"], "values": ["2014-02-13T13:15", "2014-02-13"]}, {"core_id": "CORE-000720", "message": "FTDTC is greater than RFPENDTC", "executability": "fully executable", "dataset": "ft.json", "USUBJID": "CDISC003", "row": 1142, "SEQ": 462, "variables": ["FTDTC", "RFPENDTC"], "values": ["2014-02-13T13:15", "2014-02-13"]}, {"core_id": "CORE-000720", "message": "FTDTC is greater than RFPENDTC", "executability": "fully executable", "dataset": "ft.json", "USUBJID": "CDISC003", "row": 1143, "SEQ": 463, "variables": ["FTDTC", "RFPENDTC"], "values": ["2014-02-13T13:15", "2014-02-13"]}, {"core_id": "CORE-000720", "message": "FTDTC is greater than RFPENDTC", "executability": "fully executable", "dataset": "ft.json", "USUBJID": "CDISC003", "row": 1144, "SEQ": 464, "variables": ["FTDTC", "RFPENDTC"], "values": ["2014-02-13T13:15", "2014-02-13"]}, {"core_id": "CORE-000720", "message": "FTDTC is greater than RFPENDTC", "executability": "fully executable", "dataset": "ft.json", "USUBJID": "CDISC003", "row": 1145, "SEQ": 465, "variables": ["FTDTC", "RFPENDTC"], "values": ["2014-02-13T13:15", "2014-02-13"]}, {"core_id": "CORE-000720", "message": "FTDTC is greater than RFPENDTC", "executability": "fully executable", "dataset": "ft.json", "USUBJID": "CDISC003", "row": 1146, "SEQ": 466, "variables": ["FTDTC", "RFPENDTC"], "values": ["2014-02-13T13:15", "2014-02-13"]}, {"core_id": "CORE-000720", "message": "FTDTC is greater than RFPENDTC", "executability": "fully executable", "dataset": "ft.json", "USUBJID": "CDISC003", "row": 1147, "SEQ": 467, "variables": ["FTDTC", "RFPENDTC"], "values": ["2014-02-13T13:15", "2014-02-13"]}, {"core_id": "CORE-000720", "message": "FTDTC is greater than RFPENDTC", "executability": "fully executable", "dataset": "ft.json", "USUBJID": "CDISC003", "row": 1148, "SEQ": 468, "variables": ["FTDTC", "RFPENDTC"], "values": ["2014-02-13T13:15", "2014-02-13"]}, {"core_id": "CORE-000720", "message": "FTDTC is greater than RFPENDTC", "executability": "fully executable", "dataset": "ft.json", "USUBJID": "CDISC003", "row": 1149, "SEQ": 469, "variables": ["FTDTC", "RFPENDTC"], "values": ["2014-02-13T13:15", "2014-02-13"]}, {"core_id": "CORE-000720", "message": "FTDTC is greater than RFPENDTC", "executability": "fully executable", "dataset": "ft.json", "USUBJID": "CDISC003", "row": 1150, "SEQ": 470, "variables": ["FTDTC", "RFPENDTC"], "values": ["2014-02-13T13:15", "2014-02-13"]}, {"core_id": "CORE-000720", "message": "FTDTC is greater than RFPENDTC", "executability": "fully executable", "dataset": "ft.json", "USUBJID": "CDISC003", "row": 1151, "SEQ": 471, "variables": ["FTDTC", "RFPENDTC"], "values": ["2014-02-13T13:15", "2014-02-13"]}, {"core_id": "CORE-000720", "message": "FTDTC is greater than RFPENDTC", "executability": "fully executable", "dataset": "ft.json", "USUBJID": "CDISC003", "row": 1152, "SEQ": 472, "variables": ["FTDTC", "RFPENDTC"], "values": ["2014-02-13T13:15", "2014-02-13"]}, {"core_id": "CORE-000720", "message": "FTDTC is greater than RFPENDTC", "executability": "fully executable", "dataset": "ft.json", "USUBJID": "CDISC003", "row": 1153, "SEQ": 473, "variables": ["FTDTC", "RFPENDTC"], "values": ["2014-02-13T13:15", "2014-02-13"]}, {"core_id": "CORE-000720", "message": "FTDTC is greater than RFPENDTC", "executability": "fully executable", "dataset": "ft.json", "USUBJID": "CDISC003", "row": 1154, "SEQ": 474, "variables": ["FTDTC", "RFPENDTC"], "values": ["2014-02-13T13:15", "2014-02-13"]}, {"core_id": "CORE-000720", "message": "FTDTC is greater than RFPENDTC", "executability": "fully executable", "dataset": "ft.json", "USUBJID": "CDISC003", "row": 1155, "SEQ": 475, "variables": ["FTDTC", "RFPENDTC"], "values": ["2014-02-13T13:15", "2014-02-13"]}, {"core_id": "CORE-000720", "message": "FTDTC is greater than RFPENDTC", "executability": "fully executable", "dataset": "ft.json", "USUBJID": "CDISC003", "row": 1156, "SEQ": 476, "variables": ["FTDTC", "RFPENDTC"], "values": ["2014-02-13T13:15", "2014-02-13"]}, {"core_id": "CORE-000720", "message": "FTDTC is greater than RFPENDTC", "executability": "fully executable", "dataset": "ft.json", "USUBJID": "CDISC003", "row": 1157, "SEQ": 477, "variables": ["FTDTC", "RFPENDTC"], "values": ["2014-02-13T13:20", "2014-02-13"]}, {"core_id": "CORE-000720", "message": "FTDTC is greater than RFPENDTC", "executability": "fully executable", "dataset": "ft.json", "USUBJID": "CDISC003", "row": 1158, "SEQ": 478, "variables": ["FTDTC", "RFPENDTC"], "values": ["2014-02-13T13:20", "2014-02-13"]}, {"core_id": "CORE-000720", "message": "FTDTC is greater than RFPENDTC", "executability": "fully executable", "dataset": "ft.json", "USUBJID": "CDISC003", "row": 1159, "SEQ": 479, "variables": ["FTDTC", "RFPENDTC"], "values": ["2014-02-13T13:20", "2014-02-13"]}, {"core_id": "CORE-000720", "message": "FTDTC is greater than RFPENDTC", "executability": "fully executable", "dataset": "ft.json", "USUBJID": "CDISC003", "row": 1160, "SEQ": 480, "variables": ["FTDTC", "RFPENDTC"], "values": ["2014-02-13T13:20", "2014-02-13"]}, {"core_id": "CORE-000720", "message": "FTDTC is greater than RFPENDTC", "executability": "fully executable", "dataset": "ft.json", "USUBJID": "CDISC003", "row": 1161, "SEQ": 481, "variables": ["FTDTC", "RFPENDTC"], "values": ["2014-02-13T13:20", "2014-02-13"]}, {"core_id": "CORE-000720", "message": "FTDTC is greater than RFPENDTC", "executability": "fully executable", "dataset": "ft.json", "USUBJID": "CDISC003", "row": 1162, "SEQ": 482, "variables": ["FTDTC", "RFPENDTC"], "values": ["2014-02-13T13:20", "2014-02-13"]}, {"core_id": "CORE-000720", "message": "FTDTC is greater than RFPENDTC", "executability": "fully executable", "dataset": "ft.json", "USUBJID": "CDISC003", "row": 1163, "SEQ": 483, "variables": ["FTDTC", "RFPENDTC"], "values": ["2014-02-13T13:20", "2014-02-13"]}, {"core_id": "CORE-000720", "message": "FTDTC is greater than RFPENDTC", "executability": "fully executable", "dataset": "ft.json", "USUBJID": "CDISC003", "row": 1164, "SEQ": 484, "variables": ["FTDTC", "RFPENDTC"], "values": ["2014-02-13T13:20", "2014-02-13"]}, {"core_id": "CORE-000720", "message": "FTDTC is greater than RFPENDTC", "executability": "fully executable", "dataset": "ft.json", "USUBJID": "CDISC003", "row": 1165, "SEQ": 485, "variables": ["FTDTC", "RFPENDTC"], "values": ["2014-02-13T13:20", "2014-02-13"]}, {"core_id": "CORE-000720", "message": "FTDTC is greater than RFPENDTC", "executability": "fully executable", "dataset": "ft.json", "USUBJID": "CDISC003", "row": 1166, "SEQ": 486, "variables": ["FTDTC", "RFPENDTC"], "values": ["2014-02-13T13:20", "2014-02-13"]}, {"core_id": "CORE-000720", "message": "FTDTC is greater than RFPENDTC", "executability": "fully executable", "dataset": "ft.json", "USUBJID": "CDISC003", "row": 1167, "SEQ": 487, "variables": ["FTDTC", "RFPENDTC"], "values": ["2014-02-13T13:20", "2014-02-13"]}, {"core_id": "CORE-000720", "message": "FTDTC is greater than RFPENDTC", "executability": "fully executable", "dataset": "ft.json", "USUBJID": "CDISC003", "row": 1168, "SEQ": 488, "variables": ["FTDTC", "RFPENDTC"], "values": ["2014-02-13T13:20", "2014-02-13"]}, {"core_id": "CORE-000720", "message": "FTDTC is greater than RFPENDTC", "executability": "fully executable", "dataset": "ft.json", "USUBJID": "CDISC003", "row": 1169, "SEQ": 489, "variables": ["FTDTC", "RFPENDTC"], "values": ["2014-02-13T13:20", "2014-02-13"]}, {"core_id": "CORE-000720", "message": "FTDTC is greater than RFPENDTC", "executability": "fully executable", "dataset": "ft.json", "USUBJID": "CDISC003", "row": 1170, "SEQ": 490, "variables": ["FTDTC", "RFPENDTC"], "values": ["2014-02-13T13:20", "2014-02-13"]}, {"core_id": "CORE-000720", "message": "FTDTC is greater than RFPENDTC", "executability": "fully executable", "dataset": "ft.json", "USUBJID": "CDISC003", "row": 1171, "SEQ": 491, "variables": ["FTDTC", "RFPENDTC"], "values": ["2014-02-13T13:20", "2014-02-13"]}, {"core_id": "CORE-000720", "message": "FTDTC is greater than RFPENDTC", "executability": "fully executable", "dataset": "ft.json", "USUBJID": "CDISC003", "row": 1172, "SEQ": 492, "variables": ["FTDTC", "RFPENDTC"], "values": ["2014-02-13T13:20", "2014-02-13"]}, {"core_id": "CORE-000720", "message": "FTDTC is greater than RFPENDTC", "executability": "fully executable", "dataset": "ft.json", "USUBJID": "CDISC003", "row": 1173, "SEQ": 493, "variables": ["FTDTC", "RFPENDTC"], "values": ["2014-02-13T13:20", "2014-02-13"]}, {"core_id": "CORE-000720", "message": "FTDTC is greater than RFPENDTC", "executability": "fully executable", "dataset": "ft.json", "USUBJID": "CDISC003", "row": 1174, "SEQ": 494, "variables": ["FTDTC", "RFPENDTC"], "values": ["2014-02-13T13:25", "2014-02-13"]}, {"core_id": "CORE-000720", "message": "FTDTC is greater than RFPENDTC", "executability": "fully executable", "dataset": "ft.json", "USUBJID": "CDISC003", "row": 1175, "SEQ": 495, "variables": ["FTDTC", "RFPENDTC"], "values": ["2014-02-13T13:25", "2014-02-13"]}, {"core_id": "CORE-000720", "message": "FTDTC is greater than RFPENDTC", "executability": "fully executable", "dataset": "ft.json", "USUBJID": "CDISC003", "row": 1176, "SEQ": 496, "variables": ["FTDTC", "RFPENDTC"], "values": ["2014-02-13T13:25", "2014-02-13"]}, {"core_id": "CORE-000720", "message": "FTDTC is greater than RFPENDTC", "executability": "fully executable", "dataset": "ft.json", "USUBJID": "CDISC003", "row": 1177, "SEQ": 497, "variables": ["FTDTC", "RFPENDTC"], "values": ["2014-02-13T13:25", "2014-02-13"]}, {"core_id": "CORE-000720", "message": "FTDTC is greater than RFPENDTC", "executability": "fully executable", "dataset": "ft.json", "USUBJID": "CDISC003", "row": 1178, "SEQ": 498, "variables": ["FTDTC", "RFPENDTC"], "values": ["2014-02-13T13:25", "2014-02-13"]}, {"core_id": "CORE-000720", "message": "FTDTC is greater than RFPENDTC", "executability": "fully executable", "dataset": "ft.json", "USUBJID": "CDISC003", "row": 1179, "SEQ": 499, "variables": ["FTDTC", "RFPENDTC"], "values": ["2014-02-13T13:25", "2014-02-13"]}, {"core_id": "CORE-000720", "message": "FTDTC is greater than RFPENDTC", "executability": "fully executable", "dataset": "ft.json", "USUBJID": "CDISC003", "row": 1180, "SEQ": 500, "variables": ["FTDTC", "RFPENDTC"], "values": ["2014-02-13T13:25", "2014-02-13"]}, {"core_id": "CORE-000720", "message": "FTDTC is greater than RFPENDTC", "executability": "fully executable", "dataset": "ft.json", "USUBJID": "CDISC003", "row": 1181, "SEQ": 501, "variables": ["FTDTC", "RFPENDTC"], "values": ["2014-02-13T13:25", "2014-02-13"]}, {"core_id": "CORE-000720", "message": "FTDTC is greater than RFPENDTC", "executability": "fully executable", "dataset": "ft.json", "USUBJID": "CDISC003", "row": 1182, "SEQ": 502, "variables": ["FTDTC", "RFPENDTC"], "values": ["2014-02-13T13:25", "2014-02-13"]}, {"core_id": "CORE-000720", "message": "FTDTC is greater than RFPENDTC", "executability": "fully executable", "dataset": "ft.json", "USUBJID": "CDISC003", "row": 1183, "SEQ": 503, "variables": ["FTDTC", "RFPENDTC"], "values": ["2014-02-13T13:25", "2014-02-13"]}, {"core_id": "CORE-000720", "message": "FTDTC is greater than RFPENDTC", "executability": "fully executable", "dataset": "ft.json", "USUBJID": "CDISC003", "row": 1184, "SEQ": 504, "variables": ["FTDTC", "RFPENDTC"], "values": ["2014-02-13T13:25", "2014-02-13"]}, {"core_id": "CORE-000720", "message": "FTDTC is greater than RFPENDTC", "executability": "fully executable", "dataset": "ft.json", "USUBJID": "CDISC003", "row": 1185, "SEQ": 505, "variables": ["FTDTC", "RFPENDTC"], "values": ["2014-02-13T13:25", "2014-02-13"]}, {"core_id": "CORE-000720", "message": "FTDTC is greater than RFPENDTC", "executability": "fully executable", "dataset": "ft.json", "USUBJID": "CDISC003", "row": 1186, "SEQ": 506, "variables": ["FTDTC", "RFPENDTC"], "values": ["2014-02-13T13:25", "2014-02-13"]}, {"core_id": "CORE-000720", "message": "FTDTC is greater than RFPENDTC", "executability": "fully executable", "dataset": "ft.json", "USUBJID": "CDISC003", "row": 1187, "SEQ": 507, "variables": ["FTDTC", "RFPENDTC"], "values": ["2014-02-13T13:25", "2014-02-13"]}, {"core_id": "CORE-000720", "message": "FTDTC is greater than RFPENDTC", "executability": "fully executable", "dataset": "ft.json", "USUBJID": "CDISC003", "row": 1188, "SEQ": 508, "variables": ["FTDTC", "RFPENDTC"], "values": ["2014-02-13T13:25", "2014-02-13"]}, {"core_id": "CORE-000720", "message": "FTDTC is greater than RFPENDTC", "executability": "fully executable", "dataset": "ft.json", "USUBJID": "CDISC003", "row": 1189, "SEQ": 509, "variables": ["FTDTC", "RFPENDTC"], "values": ["2014-02-13T13:25", "2014-02-13"]}, {"core_id": "CORE-000720", "message": "FTDTC is greater than RFPENDTC", "executability": "fully executable", "dataset": "ft.json", "USUBJID": "CDISC003", "row": 1190, "SEQ": 510, "variables": ["FTDTC", "RFPENDTC"], "values": ["2014-02-13T13:25", "2014-02-13"]}, {"core_id": "CORE-000720", "message": "FTDTC is greater than RFPENDTC", "executability": "fully executable", "dataset": "ft.json", "USUBJID": "CDISC003", "row": 1191, "SEQ": 511, "variables": ["FTDTC", "RFPENDTC"], "values": ["2014-02-13T13:30", "2014-02-13"]}, {"core_id": "CORE-000720", "message": "FTDTC is greater than RFPENDTC", "executability": "fully executable", "dataset": "ft.json", "USUBJID": "CDISC003", "row": 1192, "SEQ": 512, "variables": ["FTDTC", "RFPENDTC"], "values": ["2014-02-13T13:30", "2014-02-13"]}, {"core_id": "CORE-000720", "message": "FTDTC is greater than RFPENDTC", "executability": "fully executable", "dataset": "ft.json", "USUBJID": "CDISC003", "row": 1193, "SEQ": 513, "variables": ["FTDTC", "RFPENDTC"], "values": ["2014-02-13T13:30", "2014-02-13"]}, {"core_id": "CORE-000720", "message": "FTDTC is greater than RFPENDTC", "executability": "fully executable", "dataset": "ft.json", "USUBJID": "CDISC003", "row": 1194, "SEQ": 514, "variables": ["FTDTC", "RFPENDTC"], "values": ["2014-02-13T13:30", "2014-02-13"]}, {"core_id": "CORE-000720", "message": "FTDTC is greater than RFPENDTC", "executability": "fully executable", "dataset": "ft.json", "USUBJID": "CDISC003", "row": 1195, "SEQ": 515, "variables": ["FTDTC", "RFPENDTC"], "values": ["2014-02-13T13:30", "2014-02-13"]}, {"core_id": "CORE-000720", "message": "FTDTC is greater than RFPENDTC", "executability": "fully executable", "dataset": "ft.json", "USUBJID": "CDISC003", "row": 1196, "SEQ": 516, "variables": ["FTDTC", "RFPENDTC"], "values": ["2014-02-13T13:30", "2014-02-13"]}, {"core_id": "CORE-000720", "message": "FTDTC is greater than RFPENDTC", "executability": "fully executable", "dataset": "ft.json", "USUBJID": "CDISC003", "row": 1197, "SEQ": 517, "variables": ["FTDTC", "RFPENDTC"], "values": ["2014-02-13T13:30", "2014-02-13"]}, {"core_id": "CORE-000720", "message": "FTDTC is greater than RFPENDTC", "executability": "fully executable", "dataset": "ft.json", "USUBJID": "CDISC003", "row": 1198, "SEQ": 518, "variables": ["FTDTC", "RFPENDTC"], "values": ["2014-02-13T13:30", "2014-02-13"]}, {"core_id": "CORE-000720", "message": "FTDTC is greater than RFPENDTC", "executability": "fully executable", "dataset": "ft.json", "USUBJID": "CDISC003", "row": 1199, "SEQ": 519, "variables": ["FTDTC", "RFPENDTC"], "values": ["2014-02-13T13:30", "2014-02-13"]}, {"core_id": "CORE-000720", "message": "FTDTC is greater than RFPENDTC", "executability": "fully executable", "dataset": "ft.json", "USUBJID": "CDISC003", "row": 1200, "SEQ": 520, "variables": ["FTDTC", "RFPENDTC"], "values": ["2014-02-13T13:30", "2014-02-13"]}, {"core_id": "CORE-000720", "message": "FTDTC is greater than RFPENDTC", "executability": "fully executable", "dataset": "ft.json", "USUBJID": "CDISC003", "row": 1201, "SEQ": 521, "variables": ["FTDTC", "RFPENDTC"], "values": ["2014-02-13T13:30", "2014-02-13"]}, {"core_id": "CORE-000720", "message": "FTDTC is greater than RFPENDTC", "executability": "fully executable", "dataset": "ft.json", "USUBJID": "CDISC003", "row": 1202, "SEQ": 522, "variables": ["FTDTC", "RFPENDTC"], "values": ["2014-02-13T13:30", "2014-02-13"]}, {"core_id": "CORE-000720", "message": "FTDTC is greater than RFPENDTC", "executability": "fully executable", "dataset": "ft.json", "USUBJID": "CDISC003", "row": 1203, "SEQ": 523, "variables": ["FTDTC", "RFPENDTC"], "values": ["2014-02-13T13:30", "2014-02-13"]}, {"core_id": "CORE-000720", "message": "FTDTC is greater than RFPENDTC", "executability": "fully executable", "dataset": "ft.json", "USUBJID": "CDISC003", "row": 1204, "SEQ": 524, "variables": ["FTDTC", "RFPENDTC"], "values": ["2014-02-13T13:30", "2014-02-13"]}, {"core_id": "CORE-000720", "message": "FTDTC is greater than RFPENDTC", "executability": "fully executable", "dataset": "ft.json", "USUBJID": "CDISC003", "row": 1205, "SEQ": 525, "variables": ["FTDTC", "RFPENDTC"], "values": ["2014-02-13T13:30", "2014-02-13"]}, {"core_id": "CORE-000720", "message": "FTDTC is greater than RFPENDTC", "executability": "fully executable", "dataset": "ft.json", "USUBJID": "CDISC003", "row": 1206, "SEQ": 526, "variables": ["FTDTC", "RFPENDTC"], "values": ["2014-02-13T13:30", "2014-02-13"]}, {"core_id": "CORE-000720", "message": "FTDTC is greater than RFPENDTC", "executability": "fully executable", "dataset": "ft.json", "USUBJID": "CDISC003", "row": 1207, "SEQ": 527, "variables": ["FTDTC", "RFPENDTC"], "values": ["2014-02-13T13:30", "2014-02-13"]}, {"core_id": "CORE-000720", "message": "FTDTC is greater than RFPENDTC", "executability": "fully executable", "dataset": "ft.json", "USUBJID": "CDISC003", "row": 1208, "SEQ": 528, "variables": ["FTDTC", "RFPENDTC"], "values": ["2014-02-13T14:00", "2014-02-13"]}, {"core_id": "CORE-000720", "message": "FTDTC is greater than RFPENDTC", "executability": "fully executable", "dataset": "ft.json", "USUBJID": "CDISC003", "row": 1209, "SEQ": 529, "variables": ["FTDTC", "RFPENDTC"], "values": ["2014-02-13T14:00", "2014-02-13"]}, {"core_id": "CORE-000720", "message": "FTDTC is greater than RFPENDTC", "executability": "fully executable", "dataset": "ft.json", "USUBJID": "CDISC003", "row": 1210, "SEQ": 530, "variables": ["FTDTC", "RFPENDTC"], "values": ["2014-02-13T14:00", "2014-02-13"]}, {"core_id": "CORE-000720", "message": "FTDTC is greater than RFPENDTC", "executability": "fully executable", "dataset": "ft.json", "USUBJID": "CDISC003", "row": 1211, "SEQ": 531, "variables": ["FTDTC", "RFPENDTC"], "values": ["2014-02-13T14:00", "2014-02-13"]}, {"core_id": "CORE-000720", "message": "FTDTC is greater than RFPENDTC", "executability": "fully executable", "dataset": "ft.json", "USUBJID": "CDISC003", "row": 1212, "SEQ": 532, "variables": ["FTDTC", "RFPENDTC"], "values": ["2014-02-13T14:00", "2014-02-13"]}, {"core_id": "CORE-000720", "message": "FTDTC is greater than RFPENDTC", "executability": "fully executable", "dataset": "ft.json", "USUBJID": "CDISC003", "row": 1213, "SEQ": 533, "variables": ["FTDTC", "RFPENDTC"], "values": ["2014-02-13T14:00", "2014-02-13"]}, {"core_id": "CORE-000720", "message": "FTDTC is greater than RFPENDTC", "executability": "fully executable", "dataset": "ft.json", "USUBJID": "CDISC003", "row": 1214, "SEQ": 534, "variables": ["FTDTC", "RFPENDTC"], "values": ["2014-02-13T14:00", "2014-02-13"]}, {"core_id": "CORE-000720", "message": "FTDTC is greater than RFPENDTC", "executability": "fully executable", "dataset": "ft.json", "USUBJID": "CDISC003", "row": 1215, "SEQ": 535, "variables": ["FTDTC", "RFPENDTC"], "values": ["2014-02-13T14:00", "2014-02-13"]}, {"core_id": "CORE-000720", "message": "FTDTC is greater than RFPENDTC", "executability": "fully executable", "dataset": "ft.json", "USUBJID": "CDISC003", "row": 1216, "SEQ": 536, "variables": ["FTDTC", "RFPENDTC"], "values": ["2014-02-13T14:00", "2014-02-13"]}, {"core_id": "CORE-000720", "message": "FTDTC is greater than RFPENDTC", "executability": "fully executable", "dataset": "ft.json", "USUBJID": "CDISC003", "row": 1217, "SEQ": 537, "variables": ["FTDTC", "RFPENDTC"], "values": ["2014-02-13T14:00", "2014-02-13"]}, {"core_id": "CORE-000720", "message": "FTDTC is greater than RFPENDTC", "executability": "fully executable", "dataset": "ft.json", "USUBJID": "CDISC003", "row": 1218, "SEQ": 538, "variables": ["FTDTC", "RFPENDTC"], "values": ["2014-02-13T14:00", "2014-02-13"]}, {"core_id": "CORE-000720", "message": "FTDTC is greater than RFPENDTC", "executability": "fully executable", "dataset": "ft.json", "USUBJID": "CDISC003", "row": 1219, "SEQ": 539, "variables": ["FTDTC", "RFPENDTC"], "values": ["2014-02-13T14:00", "2014-02-13"]}, {"core_id": "CORE-000720", "message": "FTDTC is greater than RFPENDTC", "executability": "fully executable", "dataset": "ft.json", "USUBJID": "CDISC003", "row": 1220, "SEQ": 540, "variables": ["FTDTC", "RFPENDTC"], "values": ["2014-02-13T14:00", "2014-02-13"]}, {"core_id": "CORE-000720", "message": "FTDTC is greater than RFPENDTC", "executability": "fully executable", "dataset": "ft.json", "USUBJID": "CDISC003", "row": 1221, "SEQ": 541, "variables": ["FTDTC", "RFPENDTC"], "values": ["2014-02-13T14:00", "2014-02-13"]}, {"core_id": "CORE-000720", "message": "FTDTC is greater than RFPENDTC", "executability": "fully executable", "dataset": "ft.json", "USUBJID": "CDISC003", "row": 1222, "SEQ": 542, "variables": ["FTDTC", "RFPENDTC"], "values": ["2014-02-13T14:00", "2014-02-13"]}, {"core_id": "CORE-000720", "message": "FTDTC is greater than RFPENDTC", "executability": "fully executable", "dataset": "ft.json", "USUBJID": "CDISC003", "row": 1223, "SEQ": 543, "variables": ["FTDTC", "RFPENDTC"], "values": ["2014-02-13T14:00", "2014-02-13"]}, {"core_id": "CORE-000720", "message": "FTDTC is greater than RFPENDTC", "executability": "fully executable", "dataset": "ft.json", "USUBJID": "CDISC003", "row": 1224, "SEQ": 544, "variables": ["FTDTC", "RFPENDTC"], "values": ["2014-02-13T14:00", "2014-02-13"]}, {"core_id": "CORE-000720", "message": "FTDTC is greater than RFPENDTC", "executability": "fully executable", "dataset": "ft.json", "USUBJID": "CDISC007", "row": 1497, "SEQ": 1, "variables": ["FTDTC", "RFPENDTC"], "values": ["2013-06-20T09:00", "2013-06-20"]}, {"core_id": "CORE-000720", "message": "FTDTC is greater than RFPENDTC", "executability": "fully executable", "dataset": "ft.json", "USUBJID": "CDISC007", "row": 1498, "SEQ": 2, "variables": ["FTDTC", "RFPENDTC"], "values": ["2013-06-20T09:00", "2013-06-20"]}, {"core_id": "CORE-000720", "message": "FTDTC is greater than RFPENDTC", "executability": "fully executable", "dataset": "ft.json", "USUBJID": "CDISC007", "row": 1499, "SEQ": 3, "variables": ["FTDTC", "RFPENDTC"], "values": ["2013-06-20T09:00", "2013-06-20"]}, {"core_id": "CORE-000720", "message": "FTDTC is greater than RFPENDTC", "executability": "fully executable", "dataset": "ft.json", "USUBJID": "CDISC007", "row": 1500, "SEQ": 4, "variables": ["FTDTC", "RFPENDTC"], "values": ["2013-06-20T09:00", "2013-06-20"]}, {"core_id": "CORE-000720", "message": "FTDTC is greater than RFPENDTC", "executability": "fully executable", "dataset": "ft.json", "USUBJID": "CDISC007", "row": 1501, "SEQ": 5, "variables": ["FTDTC", "RFPENDTC"], "values": ["2013-06-20T09:00", "2013-06-20"]}, {"core_id": "CORE-000720", "message": "FTDTC is greater than RFPENDTC", "executability": "fully executable", "dataset": "ft.json", "USUBJID": "CDISC007", "row": 1502, "SEQ": 6, "variables": ["FTDTC", "RFPENDTC"], "values": ["2013-06-20T09:00", "2013-06-20"]}, {"core_id": "CORE-000720", "message": "FTDTC is greater than RFPENDTC", "executability": "fully executable", "dataset": "ft.json", "USUBJID": "CDISC007", "row": 1503, "SEQ": 7, "variables": ["FTDTC", "RFPENDTC"], "values": ["2013-06-20T09:00", "2013-06-20"]}, {"core_id": "CORE-000720", "message": "FTDTC is greater than RFPENDTC", "executability": "fully executable", "dataset": "ft.json", "USUBJID": "CDISC007", "row": 1504, "SEQ": 8, "variables": ["FTDTC", "RFPENDTC"], "values": ["2013-06-20T09:00", "2013-06-20"]}, {"core_id": "CORE-000720", "message": "FTDTC is greater than RFPENDTC", "executability": "fully executable", "dataset": "ft.json", "USUBJID": "CDISC007", "row": 1505, "SEQ": 9, "variables": ["FTDTC", "RFPENDTC"], "values": ["2013-06-20T09:00", "2013-06-20"]}, {"core_id": "CORE-000720", "message": "FTDTC is greater than RFPENDTC", "executability": "fully executable", "dataset": "ft.json", "USUBJID": "CDISC007", "row": 1506, "SEQ": 10, "variables": ["FTDTC", "RFPENDTC"], "values": ["2013-06-20T09:00", "2013-06-20"]}, {"core_id": "CORE-000720", "message": "FTDTC is greater than RFPENDTC", "executability": "fully executable", "dataset": "ft.json", "USUBJID": "CDISC007", "row": 1507, "SEQ": 11, "variables": ["FTDTC", "RFPENDTC"], "values": ["2013-06-20T09:00", "2013-06-20"]}, {"core_id": "CORE-000720", "message": "FTDTC is greater than RFPENDTC", "executability": "fully executable", "dataset": "ft.json", "USUBJID": "CDISC007", "row": 1508, "SEQ": 12, "variables": ["FTDTC", "RFPENDTC"], "values": ["2013-06-20T09:00", "2013-06-20"]}, {"core_id": "CORE-000720", "message": "FTDTC is greater than RFPENDTC", "executability": "fully executable", "dataset": "ft.json", "USUBJID": "CDISC007", "row": 1509, "SEQ": 13, "variables": ["FTDTC", "RFPENDTC"], "values": ["2013-06-20T09:00", "2013-06-20"]}, {"core_id": "CORE-000720", "message": "FTDTC is greater than RFPENDTC", "executability": "fully executable", "dataset": "ft.json", "USUBJID": "CDISC007", "row": 1510, "SEQ": 14, "variables": ["FTDTC", "RFPENDTC"], "values": ["2013-06-20T09:00", "2013-06-20"]}, {"core_id": "CORE-000720", "message": "FTDTC is greater than RFPENDTC", "executability": "fully executable", "dataset": "ft.json", "USUBJID": "CDISC007", "row": 1511, "SEQ": 15, "variables": ["FTDTC", "RFPENDTC"], "values": ["2013-06-20T09:00", "2013-06-20"]}, {"core_id": "CORE-000720", "message": "FTDTC is greater than RFPENDTC", "executability": "fully executable", "dataset": "ft.json", "USUBJID": "CDISC007", "row": 1512, "SEQ": 16, "variables": ["FTDTC", "RFPENDTC"], "values": ["2013-06-20T09:00", "2013-06-20"]}, {"core_id": "CORE-000720", "message": "FTDTC is greater than RFPENDTC", "executability": "fully executable", "dataset": "ft.json", "USUBJID": "CDISC007", "row": 1513, "SEQ": 17, "variables": ["FTDTC", "RFPENDTC"], "values": ["2013-06-20T09:00", "2013-06-20"]}, {"core_id": "CORE-000720", "message": "FTDTC is greater than RFPENDTC", "executability": "fully executable", "dataset": "ft.json", "USUBJID": "CDISC007", "row": 1514, "SEQ": 18, "variables": ["FTDTC", "RFPENDTC"], "values": ["2013-06-20T09:05", "2013-06-20"]}, {"core_id": "CORE-000720", "message": "FTDTC is greater than RFPENDTC", "executability": "fully executable", "dataset": "ft.json", "USUBJID": "CDISC007", "row": 1515, "SEQ": 19, "variables": ["FTDTC", "RFPENDTC"], "values": ["2013-06-20T09:05", "2013-06-20"]}, {"core_id": "CORE-000720", "message": "FTDTC is greater than RFPENDTC", "executability": "fully executable", "dataset": "ft.json", "USUBJID": "CDISC007", "row": 1516, "SEQ": 20, "variables": ["FTDTC", "RFPENDTC"], "values": ["2013-06-20T09:05", "2013-06-20"]}, {"core_id": "CORE-000720", "message": "FTDTC is greater than RFPENDTC", "executability": "fully executable", "dataset": "ft.json", "USUBJID": "CDISC007", "row": 1517, "SEQ": 21, "variables": ["FTDTC", "RFPENDTC"], "values": ["2013-06-20T09:05", "2013-06-20"]}, {"core_id": "CORE-000720", "message": "FTDTC is greater than RFPENDTC", "executability": "fully executable", "dataset": "ft.json", "USUBJID": "CDISC007", "row": 1518, "SEQ": 22, "variables": ["FTDTC", "RFPENDTC"], "values": ["2013-06-20T09:05", "2013-06-20"]}, {"core_id": "CORE-000720", "message": "FTDTC is greater than RFPENDTC", "executability": "fully executable", "dataset": "ft.json", "USUBJID": "CDISC007", "row": 1519, "SEQ": 23, "variables": ["FTDTC", "RFPENDTC"], "values": ["2013-06-20T09:05", "2013-06-20"]}, {"core_id": "CORE-000720", "message": "FTDTC is greater than RFPENDTC", "executability": "fully executable", "dataset": "ft.json", "USUBJID": "CDISC007", "row": 1520, "SEQ": 24, "variables": ["FTDTC", "RFPENDTC"], "values": ["2013-06-20T09:05", "2013-06-20"]}, {"core_id": "CORE-000720", "message": "FTDTC is greater than RFPENDTC", "executability": "fully executable", "dataset": "ft.json", "USUBJID": "CDISC007", "row": 1521, "SEQ": 25, "variables": ["FTDTC", "RFPENDTC"], "values": ["2013-06-20T09:05", "2013-06-20"]}, {"core_id": "CORE-000720", "message": "FTDTC is greater than RFPENDTC", "executability": "fully executable", "dataset": "ft.json", "USUBJID": "CDISC007", "row": 1522, "SEQ": 26, "variables": ["FTDTC", "RFPENDTC"], "values": ["2013-06-20T09:05", "2013-06-20"]}, {"core_id": "CORE-000720", "message": "FTDTC is greater than RFPENDTC", "executability": "fully executable", "dataset": "ft.json", "USUBJID": "CDISC007", "row": 1523, "SEQ": 27, "variables": ["FTDTC", "RFPENDTC"], "values": ["2013-06-20T09:05", "2013-06-20"]}, {"core_id": "CORE-000720", "message": "FTDTC is greater than RFPENDTC", "executability": "fully executable", "dataset": "ft.json", "USUBJID": "CDISC007", "row": 1524, "SEQ": 28, "variables": ["FTDTC", "RFPENDTC"], "values": ["2013-06-20T09:05", "2013-06-20"]}, {"core_id": "CORE-000720", "message": "FTDTC is greater than RFPENDTC", "executability": "fully executable", "dataset": "ft.json", "USUBJID": "CDISC007", "row": 1525, "SEQ": 29, "variables": ["FTDTC", "RFPENDTC"], "values": ["2013-06-20T09:05", "2013-06-20"]}, {"core_id": "CORE-000720", "message": "FTDTC is greater than RFPENDTC", "executability": "fully executable", "dataset": "ft.json", "USUBJID": "CDISC007", "row": 1526, "SEQ": 30, "variables": ["FTDTC", "RFPENDTC"], "values": ["2013-06-20T09:05", "2013-06-20"]}, {"core_id": "CORE-000720", "message": "FTDTC is greater than RFPENDTC", "executability": "fully executable", "dataset": "ft.json", "USUBJID": "CDISC007", "row": 1527, "SEQ": 31, "variables": ["FTDTC", "RFPENDTC"], "values": ["2013-06-20T09:05", "2013-06-20"]}, {"core_id": "CORE-000720", "message": "FTDTC is greater than RFPENDTC", "executability": "fully executable", "dataset": "ft.json", "USUBJID": "CDISC007", "row": 1528, "SEQ": 32, "variables": ["FTDTC", "RFPENDTC"], "values": ["2013-06-20T09:05", "2013-06-20"]}, {"core_id": "CORE-000720", "message": "FTDTC is greater than RFPENDTC", "executability": "fully executable", "dataset": "ft.json", "USUBJID": "CDISC007", "row": 1529, "SEQ": 33, "variables": ["FTDTC", "RFPENDTC"], "values": ["2013-06-20T09:05", "2013-06-20"]}, {"core_id": "CORE-000720", "message": "FTDTC is greater than RFPENDTC", "executability": "fully executable", "dataset": "ft.json", "USUBJID": "CDISC007", "row": 1530, "SEQ": 34, "variables": ["FTDTC", "RFPENDTC"], "values": ["2013-06-20T09:05", "2013-06-20"]}, {"core_id": "CORE-000720", "message": "FTDTC is greater than RFPENDTC", "executability": "fully executable", "dataset": "ft.json", "USUBJID": "CDISC007", "row": 1531, "SEQ": 35, "variables": ["FTDTC", "RFPENDTC"], "values": ["2013-06-20T09:10", "2013-06-20"]}, {"core_id": "CORE-000720", "message": "FTDTC is greater than RFPENDTC", "executability": "fully executable", "dataset": "ft.json", "USUBJID": "CDISC007", "row": 1532, "SEQ": 36, "variables": ["FTDTC", "RFPENDTC"], "values": ["2013-06-20T09:10", "2013-06-20"]}, {"core_id": "CORE-000720", "message": "FTDTC is greater than RFPENDTC", "executability": "fully executable", "dataset": "ft.json", "USUBJID": "CDISC007", "row": 1533, "SEQ": 37, "variables": ["FTDTC", "RFPENDTC"], "values": ["2013-06-20T09:10", "2013-06-20"]}, {"core_id": "CORE-000720", "message": "FTDTC is greater than RFPENDTC", "executability": "fully executable", "dataset": "ft.json", "USUBJID": "CDISC007", "row": 1534, "SEQ": 38, "variables": ["FTDTC", "RFPENDTC"], "values": ["2013-06-20T09:10", "2013-06-20"]}, {"core_id": "CORE-000720", "message": "FTDTC is greater than RFPENDTC", "executability": "fully executable", "dataset": "ft.json", "USUBJID": "CDISC007", "row": 1535, "SEQ": 39, "variables": ["FTDTC", "RFPENDTC"], "values": ["2013-06-20T09:10", "2013-06-20"]}, {"core_id": "CORE-000720", "message": "FTDTC is greater than RFPENDTC", "executability": "fully executable", "dataset": "ft.json", "USUBJID": "CDISC007", "row": 1536, "SEQ": 40, "variables": ["FTDTC", "RFPENDTC"], "values": ["2013-06-20T09:10", "2013-06-20"]}, {"core_id": "CORE-000720", "message": "FTDTC is greater than RFPENDTC", "executability": "fully executable", "dataset": "ft.json", "USUBJID": "CDISC007", "row": 1537, "SEQ": 41, "variables": ["FTDTC", "RFPENDTC"], "values": ["2013-06-20T09:10", "2013-06-20"]}, {"core_id": "CORE-000720", "message": "FTDTC is greater than RFPENDTC", "executability": "fully executable", "dataset": "ft.json", "USUBJID": "CDISC007", "row": 1538, "SEQ": 42, "variables": ["FTDTC", "RFPENDTC"], "values": ["2013-06-20T09:10", "2013-06-20"]}, {"core_id": "CORE-000720", "message": "FTDTC is greater than RFPENDTC", "executability": "fully executable", "dataset": "ft.json", "USUBJID": "CDISC007", "row": 1539, "SEQ": 43, "variables": ["FTDTC", "RFPENDTC"], "values": ["2013-06-20T09:10", "2013-06-20"]}, {"core_id": "CORE-000720", "message": "FTDTC is greater than RFPENDTC", "executability": "fully executable", "dataset": "ft.json", "USUBJID": "CDISC007", "row": 1540, "SEQ": 44, "variables": ["FTDTC", "RFPENDTC"], "values": ["2013-06-20T09:10", "2013-06-20"]}, {"core_id": "CORE-000720", "message": "FTDTC is greater than RFPENDTC", "executability": "fully executable", "dataset": "ft.json", "USUBJID": "CDISC007", "row": 1541, "SEQ": 45, "variables": ["FTDTC", "RFPENDTC"], "values": ["2013-06-20T09:10", "2013-06-20"]}, {"core_id": "CORE-000720", "message": "FTDTC is greater than RFPENDTC", "executability": "fully executable", "dataset": "ft.json", "USUBJID": "CDISC007", "row": 1542, "SEQ": 46, "variables": ["FTDTC", "RFPENDTC"], "values": ["2013-06-20T09:10", "2013-06-20"]}, {"core_id": "CORE-000720", "message": "FTDTC is greater than RFPENDTC", "executability": "fully executable", "dataset": "ft.json", "USUBJID": "CDISC007", "row": 1543, "SEQ": 47, "variables": ["FTDTC", "RFPENDTC"], "values": ["2013-06-20T09:10", "2013-06-20"]}, {"core_id": "CORE-000720", "message": "FTDTC is greater than RFPENDTC", "executability": "fully executable", "dataset": "ft.json", "USUBJID": "CDISC007", "row": 1544, "SEQ": 48, "variables": ["FTDTC", "RFPENDTC"], "values": ["2013-06-20T09:10", "2013-06-20"]}, {"core_id": "CORE-000720", "message": "FTDTC is greater than RFPENDTC", "executability": "fully executable", "dataset": "ft.json", "USUBJID": "CDISC007", "row": 1545, "SEQ": 49, "variables": ["FTDTC", "RFPENDTC"], "values": ["2013-06-20T09:10", "2013-06-20"]}, {"core_id": "CORE-000720", "message": "FTDTC is greater than RFPENDTC", "executability": "fully executable", "dataset": "ft.json", "USUBJID": "CDISC007", "row": 1546, "SEQ": 50, "variables": ["FTDTC", "RFPENDTC"], "values": ["2013-06-20T09:10", "2013-06-20"]}, {"core_id": "CORE-000720", "message": "FTDTC is greater than RFPENDTC", "executability": "fully executable", "dataset": "ft.json", "USUBJID": "CDISC007", "row": 1547, "SEQ": 51, "variables": ["FTDTC", "RFPENDTC"], "values": ["2013-06-20T09:10", "2013-06-20"]}, {"core_id": "CORE-000720", "message": "FTDTC is greater than RFPENDTC", "executability": "fully executable", "dataset": "ft.json", "USUBJID": "CDISC007", "row": 1548, "SEQ": 52, "variables": ["FTDTC", "RFPENDTC"], "values": ["2013-06-20T09:15", "2013-06-20"]}, {"core_id": "CORE-000720", "message": "FTDTC is greater than RFPENDTC", "executability": "fully executable", "dataset": "ft.json", "USUBJID": "CDISC007", "row": 1549, "SEQ": 53, "variables": ["FTDTC", "RFPENDTC"], "values": ["2013-06-20T09:15", "2013-06-20"]}, {"core_id": "CORE-000720", "message": "FTDTC is greater than RFPENDTC", "executability": "fully executable", "dataset": "ft.json", "USUBJID": "CDISC007", "row": 1550, "SEQ": 54, "variables": ["FTDTC", "RFPENDTC"], "values": ["2013-06-20T09:15", "2013-06-20"]}, {"core_id": "CORE-000720", "message": "FTDTC is greater than RFPENDTC", "executability": "fully executable", "dataset": "ft.json", "USUBJID": "CDISC007", "row": 1551, "SEQ": 55, "variables": ["FTDTC", "RFPENDTC"], "values": ["2013-06-20T09:15", "2013-06-20"]}, {"core_id": "CORE-000720", "message": "FTDTC is greater than RFPENDTC", "executability": "fully executable", "dataset": "ft.json", "USUBJID": "CDISC007", "row": 1552, "SEQ": 56, "variables": ["FTDTC", "RFPENDTC"], "values": ["2013-06-20T09:15", "2013-06-20"]}, {"core_id": "CORE-000720", "message": "FTDTC is greater than RFPENDTC", "executability": "fully executable", "dataset": "ft.json", "USUBJID": "CDISC007", "row": 1553, "SEQ": 57, "variables": ["FTDTC", "RFPENDTC"], "values": ["2013-06-20T09:15", "2013-06-20"]}, {"core_id": "CORE-000720", "message": "FTDTC is greater than RFPENDTC", "executability": "fully executable", "dataset": "ft.json", "USUBJID": "CDISC007", "row": 1554, "SEQ": 58, "variables": ["FTDTC", "RFPENDTC"], "values": ["2013-06-20T09:15", "2013-06-20"]}, {"core_id": "CORE-000720", "message": "FTDTC is greater than RFPENDTC", "executability": "fully executable", "dataset": "ft.json", "USUBJID": "CDISC007", "row": 1555, "SEQ": 59, "variables": ["FTDTC", "RFPENDTC"], "values": ["2013-06-20T09:15", "2013-06-20"]}, {"core_id": "CORE-000720", "message": "FTDTC is greater than RFPENDTC", "executability": "fully executable", "dataset": "ft.json", "USUBJID": "CDISC007", "row": 1556, "SEQ": 60, "variables": ["FTDTC", "RFPENDTC"], "values": ["2013-06-20T09:15", "2013-06-20"]}, {"core_id": "CORE-000720", "message": "FTDTC is greater than RFPENDTC", "executability": "fully executable", "dataset": "ft.json", "USUBJID": "CDISC007", "row": 1557, "SEQ": 61, "variables": ["FTDTC", "RFPENDTC"], "values": ["2013-06-20T09:15", "2013-06-20"]}, {"core_id": "CORE-000720", "message": "FTDTC is greater than RFPENDTC", "executability": "fully executable", "dataset": "ft.json", "USUBJID": "CDISC007", "row": 1558, "SEQ": 62, "variables": ["FTDTC", "RFPENDTC"], "values": ["2013-06-20T09:15", "2013-06-20"]}, {"core_id": "CORE-000720", "message": "FTDTC is greater than RFPENDTC", "executability": "fully executable", "dataset": "ft.json", "USUBJID": "CDISC007", "row": 1559, "SEQ": 63, "variables": ["FTDTC", "RFPENDTC"], "values": ["2013-06-20T09:15", "2013-06-20"]}, {"core_id": "CORE-000720", "message": "FTDTC is greater than RFPENDTC", "executability": "fully executable", "dataset": "ft.json", "USUBJID": "CDISC007", "row": 1560, "SEQ": 64, "variables": ["FTDTC", "RFPENDTC"], "values": ["2013-06-20T09:15", "2013-06-20"]}, {"core_id": "CORE-000720", "message": "FTDTC is greater than RFPENDTC", "executability": "fully executable", "dataset": "ft.json", "USUBJID": "CDISC007", "row": 1561, "SEQ": 65, "variables": ["FTDTC", "RFPENDTC"], "values": ["2013-06-20T09:15", "2013-06-20"]}, {"core_id": "CORE-000720", "message": "FTDTC is greater than RFPENDTC", "executability": "fully executable", "dataset": "ft.json", "USUBJID": "CDISC007", "row": 1562, "SEQ": 66, "variables": ["FTDTC", "RFPENDTC"], "values": ["2013-06-20T09:15", "2013-06-20"]}, {"core_id": "CORE-000720", "message": "FTDTC is greater than RFPENDTC", "executability": "fully executable", "dataset": "ft.json", "USUBJID": "CDISC007", "row": 1563, "SEQ": 67, "variables": ["FTDTC", "RFPENDTC"], "values": ["2013-06-20T09:15", "2013-06-20"]}, {"core_id": "CORE-000720", "message": "FTDTC is greater than RFPENDTC", "executability": "fully executable", "dataset": "ft.json", "USUBJID": "CDISC007", "row": 1564, "SEQ": 68, "variables": ["FTDTC", "RFPENDTC"], "values": ["2013-06-20T09:15", "2013-06-20"]}, {"core_id": "CORE-000720", "message": "FTDTC is greater than RFPENDTC", "executability": "fully executable", "dataset": "ft.json", "USUBJID": "CDISC007", "row": 1565, "SEQ": 69, "variables": ["FTDTC", "RFPENDTC"], "values": ["2013-06-20T09:20", "2013-06-20"]}, {"core_id": "CORE-000720", "message": "FTDTC is greater than RFPENDTC", "executability": "fully executable", "dataset": "ft.json", "USUBJID": "CDISC007", "row": 1566, "SEQ": 70, "variables": ["FTDTC", "RFPENDTC"], "values": ["2013-06-20T09:20", "2013-06-20"]}, {"core_id": "CORE-000720", "message": "FTDTC is greater than RFPENDTC", "executability": "fully executable", "dataset": "ft.json", "USUBJID": "CDISC007", "row": 1567, "SEQ": 71, "variables": ["FTDTC", "RFPENDTC"], "values": ["2013-06-20T09:20", "2013-06-20"]}, {"core_id": "CORE-000720", "message": "FTDTC is greater than RFPENDTC", "executability": "fully executable", "dataset": "ft.json", "USUBJID": "CDISC007", "row": 1568, "SEQ": 72, "variables": ["FTDTC", "RFPENDTC"], "values": ["2013-06-20T09:20", "2013-06-20"]}, {"core_id": "CORE-000720", "message": "FTDTC is greater than RFPENDTC", "executability": "fully executable", "dataset": "ft.json", "USUBJID": "CDISC007", "row": 1569, "SEQ": 73, "variables": ["FTDTC", "RFPENDTC"], "values": ["2013-06-20T09:20", "2013-06-20"]}, {"core_id": "CORE-000720", "message": "FTDTC is greater than RFPENDTC", "executability": "fully executable", "dataset": "ft.json", "USUBJID": "CDISC007", "row": 1570, "SEQ": 74, "variables": ["FTDTC", "RFPENDTC"], "values": ["2013-06-20T09:20", "2013-06-20"]}, {"core_id": "CORE-000720", "message": "FTDTC is greater than RFPENDTC", "executability": "fully executable", "dataset": "ft.json", "USUBJID": "CDISC007", "row": 1571, "SEQ": 75, "variables": ["FTDTC", "RFPENDTC"], "values": ["2013-06-20T09:20", "2013-06-20"]}, {"core_id": "CORE-000720", "message": "FTDTC is greater than RFPENDTC", "executability": "fully executable", "dataset": "ft.json", "USUBJID": "CDISC007", "row": 1572, "SEQ": 76, "variables": ["FTDTC", "RFPENDTC"], "values": ["2013-06-20T09:20", "2013-06-20"]}, {"core_id": "CORE-000720", "message": "FTDTC is greater than RFPENDTC", "executability": "fully executable", "dataset": "ft.json", "USUBJID": "CDISC007", "row": 1573, "SEQ": 77, "variables": ["FTDTC", "RFPENDTC"], "values": ["2013-06-20T09:20", "2013-06-20"]}, {"core_id": "CORE-000720", "message": "FTDTC is greater than RFPENDTC", "executability": "fully executable", "dataset": "ft.json", "USUBJID": "CDISC007", "row": 1574, "SEQ": 78, "variables": ["FTDTC", "RFPENDTC"], "values": ["2013-06-20T09:20", "2013-06-20"]}, {"core_id": "CORE-000720", "message": "FTDTC is greater than RFPENDTC", "executability": "fully executable", "dataset": "ft.json", "USUBJID": "CDISC007", "row": 1575, "SEQ": 79, "variables": ["FTDTC", "RFPENDTC"], "values": ["2013-06-20T09:20", "2013-06-20"]}, {"core_id": "CORE-000720", "message": "FTDTC is greater than RFPENDTC", "executability": "fully executable", "dataset": "ft.json", "USUBJID": "CDISC007", "row": 1576, "SEQ": 80, "variables": ["FTDTC", "RFPENDTC"], "values": ["2013-06-20T09:20", "2013-06-20"]}, {"core_id": "CORE-000720", "message": "FTDTC is greater than RFPENDTC", "executability": "fully executable", "dataset": "ft.json", "USUBJID": "CDISC007", "row": 1577, "SEQ": 81, "variables": ["FTDTC", "RFPENDTC"], "values": ["2013-06-20T09:20", "2013-06-20"]}, {"core_id": "CORE-000720", "message": "FTDTC is greater than RFPENDTC", "executability": "fully executable", "dataset": "ft.json", "USUBJID": "CDISC007", "row": 1578, "SEQ": 82, "variables": ["FTDTC", "RFPENDTC"], "values": ["2013-06-20T09:20", "2013-06-20"]}, {"core_id": "CORE-000720", "message": "FTDTC is greater than RFPENDTC", "executability": "fully executable", "dataset": "ft.json", "USUBJID": "CDISC007", "row": 1579, "SEQ": 83, "variables": ["FTDTC", "RFPENDTC"], "values": ["2013-06-20T09:20", "2013-06-20"]}, {"core_id": "CORE-000720", "message": "FTDTC is greater than RFPENDTC", "executability": "fully executable", "dataset": "ft.json", "USUBJID": "CDISC007", "row": 1580, "SEQ": 84, "variables": ["FTDTC", "RFPENDTC"], "values": ["2013-06-20T09:20", "2013-06-20"]}, {"core_id": "CORE-000720", "message": "FTDTC is greater than RFPENDTC", "executability": "fully executable", "dataset": "ft.json", "USUBJID": "CDISC007", "row": 1581, "SEQ": 85, "variables": ["FTDTC", "RFPENDTC"], "values": ["2013-06-20T09:20", "2013-06-20"]}, {"core_id": "CORE-000720", "message": "FTDTC is greater than RFPENDTC", "executability": "fully executable", "dataset": "ft.json", "USUBJID": "CDISC007", "row": 1582, "SEQ": 86, "variables": ["FTDTC", "RFPENDTC"], "values": ["2013-06-20T09:25", "2013-06-20"]}, {"core_id": "CORE-000720", "message": "FTDTC is greater than RFPENDTC", "executability": "fully executable", "dataset": "ft.json", "USUBJID": "CDISC007", "row": 1583, "SEQ": 87, "variables": ["FTDTC", "RFPENDTC"], "values": ["2013-06-20T09:25", "2013-06-20"]}, {"core_id": "CORE-000720", "message": "FTDTC is greater than RFPENDTC", "executability": "fully executable", "dataset": "ft.json", "USUBJID": "CDISC007", "row": 1584, "SEQ": 88, "variables": ["FTDTC", "RFPENDTC"], "values": ["2013-06-20T09:25", "2013-06-20"]}, {"core_id": "CORE-000720", "message": "FTDTC is greater than RFPENDTC", "executability": "fully executable", "dataset": "ft.json", "USUBJID": "CDISC007", "row": 1585, "SEQ": 89, "variables": ["FTDTC", "RFPENDTC"], "values": ["2013-06-20T09:25", "2013-06-20"]}, {"core_id": "CORE-000720", "message": "FTDTC is greater than RFPENDTC", "executability": "fully executable", "dataset": "ft.json", "USUBJID": "CDISC007", "row": 1586, "SEQ": 90, "variables": ["FTDTC", "RFPENDTC"], "values": ["2013-06-20T09:25", "2013-06-20"]}, {"core_id": "CORE-000720", "message": "FTDTC is greater than RFPENDTC", "executability": "fully executable", "dataset": "ft.json", "USUBJID": "CDISC007", "row": 1587, "SEQ": 91, "variables": ["FTDTC", "RFPENDTC"], "values": ["2013-06-20T09:25", "2013-06-20"]}, {"core_id": "CORE-000720", "message": "FTDTC is greater than RFPENDTC", "executability": "fully executable", "dataset": "ft.json", "USUBJID": "CDISC007", "row": 1588, "SEQ": 92, "variables": ["FTDTC", "RFPENDTC"], "values": ["2013-06-20T09:25", "2013-06-20"]}, {"core_id": "CORE-000720", "message": "FTDTC is greater than RFPENDTC", "executability": "fully executable", "dataset": "ft.json", "USUBJID": "CDISC007", "row": 1589, "SEQ": 93, "variables": ["FTDTC", "RFPENDTC"], "values": ["2013-06-20T09:25", "2013-06-20"]}, {"core_id": "CORE-000720", "message": "FTDTC is greater than RFPENDTC", "executability": "fully executable", "dataset": "ft.json", "USUBJID": "CDISC007", "row": 1590, "SEQ": 94, "variables": ["FTDTC", "RFPENDTC"], "values": ["2013-06-20T09:25", "2013-06-20"]}, {"core_id": "CORE-000720", "message": "FTDTC is greater than RFPENDTC", "executability": "fully executable", "dataset": "ft.json", "USUBJID": "CDISC007", "row": 1591, "SEQ": 95, "variables": ["FTDTC", "RFPENDTC"], "values": ["2013-06-20T09:25", "2013-06-20"]}, {"core_id": "CORE-000720", "message": "FTDTC is greater than RFPENDTC", "executability": "fully executable", "dataset": "ft.json", "USUBJID": "CDISC007", "row": 1592, "SEQ": 96, "variables": ["FTDTC", "RFPENDTC"], "values": ["2013-06-20T09:25", "2013-06-20"]}, {"core_id": "CORE-000720", "message": "FTDTC is greater than RFPENDTC", "executability": "fully executable", "dataset": "ft.json", "USUBJID": "CDISC007", "row": 1593, "SEQ": 97, "variables": ["FTDTC", "RFPENDTC"], "values": ["2013-06-20T09:25", "2013-06-20"]}, {"core_id": "CORE-000720", "message": "FTDTC is greater than RFPENDTC", "executability": "fully executable", "dataset": "ft.json", "USUBJID": "CDISC007", "row": 1594, "SEQ": 98, "variables": ["FTDTC", "RFPENDTC"], "values": ["2013-06-20T09:25", "2013-06-20"]}, {"core_id": "CORE-000720", "message": "FTDTC is greater than RFPENDTC", "executability": "fully executable", "dataset": "ft.json", "USUBJID": "CDISC007", "row": 1595, "SEQ": 99, "variables": ["FTDTC", "RFPENDTC"], "values": ["2013-06-20T09:25", "2013-06-20"]}, {"core_id": "CORE-000720", "message": "FTDTC is greater than RFPENDTC", "executability": "fully executable", "dataset": "ft.json", "USUBJID": "CDISC007", "row": 1596, "SEQ": 100, "variables": ["FTDTC", "RFPENDTC"], "values": ["2013-06-20T09:25", "2013-06-20"]}, {"core_id": "CORE-000720", "message": "FTDTC is greater than RFPENDTC", "executability": "fully executable", "dataset": "ft.json", "USUBJID": "CDISC007", "row": 1597, "SEQ": 101, "variables": ["FTDTC", "RFPENDTC"], "values": ["2013-06-20T09:25", "2013-06-20"]}, {"core_id": "CORE-000720", "message": "FTDTC is greater than RFPENDTC", "executability": "fully executable", "dataset": "ft.json", "USUBJID": "CDISC007", "row": 1598, "SEQ": 102, "variables": ["FTDTC", "RFPENDTC"], "values": ["2013-06-20T09:25", "2013-06-20"]}, {"core_id": "CORE-000720", "message": "FTDTC is greater than RFPENDTC", "executability": "fully executable", "dataset": "ft.json", "USUBJID": "CDISC007", "row": 1599, "SEQ": 103, "variables": ["FTDTC", "RFPENDTC"], "values": ["2013-06-20T09:30", "2013-06-20"]}, {"core_id": "CORE-000720", "message": "FTDTC is greater than RFPENDTC", "executability": "fully executable", "dataset": "ft.json", "USUBJID": "CDISC007", "row": 1600, "SEQ": 104, "variables": ["FTDTC", "RFPENDTC"], "values": ["2013-06-20T09:30", "2013-06-20"]}, {"core_id": "CORE-000720", "message": "FTDTC is greater than RFPENDTC", "executability": "fully executable", "dataset": "ft.json", "USUBJID": "CDISC007", "row": 1601, "SEQ": 105, "variables": ["FTDTC", "RFPENDTC"], "values": ["2013-06-20T09:30", "2013-06-20"]}, {"core_id": "CORE-000720", "message": "FTDTC is greater than RFPENDTC", "executability": "fully executable", "dataset": "ft.json", "USUBJID": "CDISC007", "row": 1602, "SEQ": 106, "variables": ["FTDTC", "RFPENDTC"], "values": ["2013-06-20T09:30", "2013-06-20"]}, {"core_id": "CORE-000720", "message": "FTDTC is greater than RFPENDTC", "executability": "fully executable", "dataset": "ft.json", "USUBJID": "CDISC007", "row": 1603, "SEQ": 107, "variables": ["FTDTC", "RFPENDTC"], "values": ["2013-06-20T09:30", "2013-06-20"]}, {"core_id": "CORE-000720", "message": "FTDTC is greater than RFPENDTC", "executability": "fully executable", "dataset": "ft.json", "USUBJID": "CDISC007", "row": 1604, "SEQ": 108, "variables": ["FTDTC", "RFPENDTC"], "values": ["2013-06-20T09:30", "2013-06-20"]}, {"core_id": "CORE-000720", "message": "FTDTC is greater than RFPENDTC", "executability": "fully executable", "dataset": "ft.json", "USUBJID": "CDISC007", "row": 1605, "SEQ": 109, "variables": ["FTDTC", "RFPENDTC"], "values": ["2013-06-20T09:30", "2013-06-20"]}, {"core_id": "CORE-000720", "message": "FTDTC is greater than RFPENDTC", "executability": "fully executable", "dataset": "ft.json", "USUBJID": "CDISC007", "row": 1606, "SEQ": 110, "variables": ["FTDTC", "RFPENDTC"], "values": ["2013-06-20T09:30", "2013-06-20"]}, {"core_id": "CORE-000720", "message": "FTDTC is greater than RFPENDTC", "executability": "fully executable", "dataset": "ft.json", "USUBJID": "CDISC007", "row": 1607, "SEQ": 111, "variables": ["FTDTC", "RFPENDTC"], "values": ["2013-06-20T09:30", "2013-06-20"]}, {"core_id": "CORE-000720", "message": "FTDTC is greater than RFPENDTC", "executability": "fully executable", "dataset": "ft.json", "USUBJID": "CDISC007", "row": 1608, "SEQ": 112, "variables": ["FTDTC", "RFPENDTC"], "values": ["2013-06-20T09:30", "2013-06-20"]}, {"core_id": "CORE-000720", "message": "FTDTC is greater than RFPENDTC", "executability": "fully executable", "dataset": "ft.json", "USUBJID": "CDISC007", "row": 1609, "SEQ": 113, "variables": ["FTDTC", "RFPENDTC"], "values": ["2013-06-20T09:30", "2013-06-20"]}, {"core_id": "CORE-000720", "message": "FTDTC is greater than RFPENDTC", "executability": "fully executable", "dataset": "ft.json", "USUBJID": "CDISC007", "row": 1610, "SEQ": 114, "variables": ["FTDTC", "RFPENDTC"], "values": ["2013-06-20T09:30", "2013-06-20"]}, {"core_id": "CORE-000720", "message": "FTDTC is greater than RFPENDTC", "executability": "fully executable", "dataset": "ft.json", "USUBJID": "CDISC007", "row": 1611, "SEQ": 115, "variables": ["FTDTC", "RFPENDTC"], "values": ["2013-06-20T09:30", "2013-06-20"]}, {"core_id": "CORE-000720", "message": "FTDTC is greater than RFPENDTC", "executability": "fully executable", "dataset": "ft.json", "USUBJID": "CDISC007", "row": 1612, "SEQ": 116, "variables": ["FTDTC", "RFPENDTC"], "values": ["2013-06-20T09:30", "2013-06-20"]}, {"core_id": "CORE-000720", "message": "FTDTC is greater than RFPENDTC", "executability": "fully executable", "dataset": "ft.json", "USUBJID": "CDISC007", "row": 1613, "SEQ": 117, "variables": ["FTDTC", "RFPENDTC"], "values": ["2013-06-20T09:30", "2013-06-20"]}, {"core_id": "CORE-000720", "message": "FTDTC is greater than RFPENDTC", "executability": "fully executable", "dataset": "ft.json", "USUBJID": "CDISC007", "row": 1614, "SEQ": 118, "variables": ["FTDTC", "RFPENDTC"], "values": ["2013-06-20T09:30", "2013-06-20"]}, {"core_id": "CORE-000720", "message": "FTDTC is greater than RFPENDTC", "executability": "fully executable", "dataset": "ft.json", "USUBJID": "CDISC007", "row": 1615, "SEQ": 119, "variables": ["FTDTC", "RFPENDTC"], "values": ["2013-06-20T09:30", "2013-06-20"]}, {"core_id": "CORE-000720", "message": "FTDTC is greater than RFPENDTC", "executability": "fully executable", "dataset": "ft.json", "USUBJID": "CDISC007", "row": 1616, "SEQ": 120, "variables": ["FTDTC", "RFPENDTC"], "values": ["2013-06-20T10:00", "2013-06-20"]}, {"core_id": "CORE-000720", "message": "FTDTC is greater than RFPENDTC", "executability": "fully executable", "dataset": "ft.json", "USUBJID": "CDISC007", "row": 1617, "SEQ": 121, "variables": ["FTDTC", "RFPENDTC"], "values": ["2013-06-20T10:00", "2013-06-20"]}, {"core_id": "CORE-000720", "message": "FTDTC is greater than RFPENDTC", "executability": "fully executable", "dataset": "ft.json", "USUBJID": "CDISC007", "row": 1618, "SEQ": 122, "variables": ["FTDTC", "RFPENDTC"], "values": ["2013-06-20T10:00", "2013-06-20"]}, {"core_id": "CORE-000720", "message": "FTDTC is greater than RFPENDTC", "executability": "fully executable", "dataset": "ft.json", "USUBJID": "CDISC007", "row": 1619, "SEQ": 123, "variables": ["FTDTC", "RFPENDTC"], "values": ["2013-06-20T10:00", "2013-06-20"]}, {"core_id": "CORE-000720", "message": "FTDTC is greater than RFPENDTC", "executability": "fully executable", "dataset": "ft.json", "USUBJID": "CDISC007", "row": 1620, "SEQ": 124, "variables": ["FTDTC", "RFPENDTC"], "values": ["2013-06-20T10:00", "2013-06-20"]}, {"core_id": "CORE-000720", "message": "FTDTC is greater than RFPENDTC", "executability": "fully executable", "dataset": "ft.json", "USUBJID": "CDISC007", "row": 1621, "SEQ": 125, "variables": ["FTDTC", "RFPENDTC"], "values": ["2013-06-20T10:00", "2013-06-20"]}, {"core_id": "CORE-000720", "message": "FTDTC is greater than RFPENDTC", "executability": "fully executable", "dataset": "ft.json", "USUBJID": "CDISC007", "row": 1622, "SEQ": 126, "variables": ["FTDTC", "RFPENDTC"], "values": ["2013-06-20T10:00", "2013-06-20"]}, {"core_id": "CORE-000720", "message": "FTDTC is greater than RFPENDTC", "executability": "fully executable", "dataset": "ft.json", "USUBJID": "CDISC007", "row": 1623, "SEQ": 127, "variables": ["FTDTC", "RFPENDTC"], "values": ["2013-06-20T10:00", "2013-06-20"]}, {"core_id": "CORE-000720", "message": "FTDTC is greater than RFPENDTC", "executability": "fully executable", "dataset": "ft.json", "USUBJID": "CDISC007", "row": 1624, "SEQ": 128, "variables": ["FTDTC", "RFPENDTC"], "values": ["2013-06-20T10:00", "2013-06-20"]}, {"core_id": "CORE-000720", "message": "FTDTC is greater than RFPENDTC", "executability": "fully executable", "dataset": "ft.json", "USUBJID": "CDISC007", "row": 1625, "SEQ": 129, "variables": ["FTDTC", "RFPENDTC"], "values": ["2013-06-20T10:00", "2013-06-20"]}, {"core_id": "CORE-000720", "message": "FTDTC is greater than RFPENDTC", "executability": "fully executable", "dataset": "ft.json", "USUBJID": "CDISC007", "row": 1626, "SEQ": 130, "variables": ["FTDTC", "RFPENDTC"], "values": ["2013-06-20T10:00", "2013-06-20"]}, {"core_id": "CORE-000720", "message": "FTDTC is greater than RFPENDTC", "executability": "fully executable", "dataset": "ft.json", "USUBJID": "CDISC007", "row": 1627, "SEQ": 131, "variables": ["FTDTC", "RFPENDTC"], "values": ["2013-06-20T10:00", "2013-06-20"]}, {"core_id": "CORE-000720", "message": "FTDTC is greater than RFPENDTC", "executability": "fully executable", "dataset": "ft.json", "USUBJID": "CDISC007", "row": 1628, "SEQ": 132, "variables": ["FTDTC", "RFPENDTC"], "values": ["2013-06-20T10:00", "2013-06-20"]}, {"core_id": "CORE-000720", "message": "FTDTC is greater than RFPENDTC", "executability": "fully executable", "dataset": "ft.json", "USUBJID": "CDISC007", "row": 1629, "SEQ": 133, "variables": ["FTDTC", "RFPENDTC"], "values": ["2013-06-20T10:00", "2013-06-20"]}, {"core_id": "CORE-000720", "message": "FTDTC is greater than RFPENDTC", "executability": "fully executable", "dataset": "ft.json", "USUBJID": "CDISC007", "row": 1630, "SEQ": 134, "variables": ["FTDTC", "RFPENDTC"], "values": ["2013-06-20T10:00", "2013-06-20"]}, {"core_id": "CORE-000720", "message": "FTDTC is greater than RFPENDTC", "executability": "fully executable", "dataset": "ft.json", "USUBJID": "CDISC007", "row": 1631, "SEQ": 135, "variables": ["FTDTC", "RFPENDTC"], "values": ["2013-06-20T10:00", "2013-06-20"]}, {"core_id": "CORE-000720", "message": "FTDTC is greater than RFPENDTC", "executability": "fully executable", "dataset": "ft.json", "USUBJID": "CDISC007", "row": 1632, "SEQ": 136, "variables": ["FTDTC", "RFPENDTC"], "values": ["2013-06-20T10:00", "2013-06-20"]}, {"core_id": "CORE-000720", "message": "LBDTC is greater than RFPENDTC", "executability": "fully executable", "dataset": "lb.json", "USUBJID": "CDISC004", "row": 799, "SEQ": 258, "variables": ["LBDTC", "RFPENDTC"], "values": ["2014-03-18T14:12", "2014-03-18"]}, {"core_id": "CORE-000720", "message": "LBDTC is greater than RFPENDTC", "executability": "fully executable", "dataset": "lb.json", "USUBJID": "CDISC004", "row": 800, "SEQ": 259, "variables": ["LBDTC", "RFPENDTC"], "values": ["2014-03-18T14:12", "2014-03-18"]}, {"core_id": "CORE-000720", "message": "LBDTC is greater than RFPENDTC", "executability": "fully executable", "dataset": "lb.json", "USUBJID": "CDISC004", "row": 801, "SEQ": 260, "variables": ["LBDTC", "RFPENDTC"], "values": ["2014-03-18T14:12", "2014-03-18"]}, {"core_id": "CORE-000720", "message": "LBDTC is greater than RFPENDTC", "executability": "fully executable", "dataset": "lb.json", "USUBJID": "CDISC004", "row": 802, "SEQ": 261, "variables": ["LBDTC", "RFPENDTC"], "values": ["2014-03-18T14:12", "2014-03-18"]}, {"core_id": "CORE-000720", "message": "LBDTC is greater than RFPENDTC", "executability": "fully executable", "dataset": "lb.json", "USUBJID": "CDISC004", "row": 803, "SEQ": 262, "variables": ["LBDTC", "RFPENDTC"], "values": ["2014-03-18T14:12", "2014-03-18"]}, {"core_id": "CORE-000720", "message": "LBDTC is greater than RFPENDTC", "executability": "fully executable", "dataset": "lb.json", "USUBJID": "CDISC004", "row": 804, "SEQ": 263, "variables": ["LBDTC", "RFPENDTC"], "values": ["2014-03-18T14:12", "2014-03-18"]}, {"core_id": "CORE-000720", "message": "LBDTC is greater than RFPENDTC", "executability": "fully executable", "dataset": "lb.json", "USUBJID": "CDISC004", "row": 805, "SEQ": 264, "variables": ["LBDTC", "RFPENDTC"], "values": ["2014-03-18T14:12", "2014-03-18"]}, {"core_id": "CORE-000720", "message": "LBDTC is greater than RFPENDTC", "executability": "fully executable", "dataset": "lb.json", "USUBJID": "CDISC004", "row": 806, "SEQ": 265, "variables": ["LBDTC", "RFPENDTC"], "values": ["2014-03-18T14:12", "2014-03-18"]}, {"core_id": "CORE-000720", "message": "LBDTC is greater than RFPENDTC", "executability": "fully executable", "dataset": "lb.json", "USUBJID": "CDISC004", "row": 807, "SEQ": 266, "variables": ["LBDTC", "RFPENDTC"], "values": ["2014-03-18T14:12", "2014-03-18"]}, {"core_id": "CORE-000720", "message": "LBDTC is greater than RFPENDTC", "executability": "fully executable", "dataset": "lb.json", "USUBJID": "CDISC004", "row": 808, "SEQ": 267, "variables": ["LBDTC", "RFPENDTC"], "values": ["2014-03-18T14:12", "2014-03-18"]}, {"core_id": "CORE-000720", "message": "LBDTC is greater than RFPENDTC", "executability": "fully executable", "dataset": "lb.json", "USUBJID": "CDISC004", "row": 809, "SEQ": 268, "variables": ["LBDTC", "RFPENDTC"], "values": ["2014-03-18T14:12", "2014-03-18"]}, {"core_id": "CORE-000720", "message": "LBDTC is greater than RFPENDTC", "executability": "fully executable", "dataset": "lb.json", "USUBJID": "CDISC004", "row": 810, "SEQ": 269, "variables": ["LBDTC", "RFPENDTC"], "values": ["2014-03-18T14:12", "2014-03-18"]}, {"core_id": "CORE-000720", "message": "LBDTC is greater than RFPENDTC", "executability": "fully executable", "dataset": "lb.json", "USUBJID": "CDISC004", "row": 811, "SEQ": 270, "variables": ["LBDTC", "RFPENDTC"], "values": ["2014-03-18T14:12", "2014-03-18"]}, {"core_id": "CORE-000720", "message": "LBDTC is greater than RFPENDTC", "executability": "fully executable", "dataset": "lb.json", "USUBJID": "CDISC004", "row": 812, "SEQ": 271, "variables": ["LBDTC", "RFPENDTC"], "values": ["2014-03-18T14:12", "2014-03-18"]}, {"core_id": "CORE-000720", "message": "LBDTC is greater than RFPENDTC", "executability": "fully executable", "dataset": "lb.json", "USUBJID": "CDISC004", "row": 813, "SEQ": 272, "variables": ["LBDTC", "RFPENDTC"], "values": ["2014-03-18T14:12", "2014-03-18"]}, {"core_id": "CORE-000720", "message": "LBDTC is greater than RFPENDTC", "executability": "fully executable", "dataset": "lb.json", "USUBJID": "CDISC004", "row": 814, "SEQ": 273, "variables": ["LBDTC", "RFPENDTC"], "values": ["2014-03-18T14:12", "2014-03-18"]}, {"core_id": "CORE-000720", "message": "LBDTC is greater than RFPENDTC", "executability": "fully executable", "dataset": "lb.json", "USUBJID": "CDISC004", "row": 815, "SEQ": 274, "variables": ["LBDTC", "RFPENDTC"], "values": ["2014-03-18T14:12", "2014-03-18"]}, {"core_id": "CORE-000720", "message": "LBDTC is greater than RFPENDTC", "executability": "fully executable", "dataset": "lb.json", "USUBJID": "CDISC004", "row": 816, "SEQ": 275, "variables": ["LBDTC", "RFPENDTC"], "values": ["2014-03-18T14:12", "2014-03-18"]}, {"core_id": "CORE-000720", "message": "LBDTC is greater than RFPENDTC", "executability": "fully executable", "dataset": "lb.json", "USUBJID": "CDISC004", "row": 817, "SEQ": 276, "variables": ["LBDTC", "RFPENDTC"], "values": ["2014-03-18T14:12", "2014-03-18"]}, {"core_id": "CORE-000720", "message": "LBDTC is greater than RFPENDTC", "executability": "fully executable", "dataset": "lb.json", "USUBJID": "CDISC004", "row": 818, "SEQ": 277, "variables": ["LBDTC", "RFPENDTC"], "values": ["2014-03-18T14:12", "2014-03-18"]}, {"core_id": "CORE-000720", "message": "LBDTC is greater than RFPENDTC", "executability": "fully executable", "dataset": "lb.json", "USUBJID": "CDISC004", "row": 819, "SEQ": 278, "variables": ["LBDTC", "RFPENDTC"], "values": ["2014-03-18T14:12", "2014-03-18"]}, {"core_id": "CORE-000720", "message": "LBDTC is greater than RFPENDTC", "executability": "fully executable", "dataset": "lb.json", "USUBJID": "CDISC004", "row": 820, "SEQ": 279, "variables": ["LBDTC", "RFPENDTC"], "values": ["2014-03-18T14:12", "2014-03-18"]}, {"core_id": "CORE-000720", "message": "LBDTC is greater than RFPENDTC", "executability": "fully executable", "dataset": "lb.json", "USUBJID": "CDISC004", "row": 821, "SEQ": 280, "variables": ["LBDTC", "RFPENDTC"], "values": ["2014-03-18T14:12", "2014-03-18"]}, {"core_id": "CORE-000720", "message": "LBDTC is greater than RFPENDTC", "executability": "fully executable", "dataset": "lb.json", "USUBJID": "CDISC004", "row": 822, "SEQ": 281, "variables": ["LBDTC", "RFPENDTC"], "values": ["2014-03-18T14:12", "2014-03-18"]}, {"core_id": "CORE-000720", "message": "LBDTC is greater than RFPENDTC", "executability": "fully executable", "dataset": "lb.json", "USUBJID": "CDISC004", "row": 823, "SEQ": 282, "variables": ["LBDTC", "RFPENDTC"], "values": ["2014-03-18T14:12", "2014-03-18"]}, {"core_id": "CORE-000720", "message": "LBDTC is greater than RFPENDTC", "executability": "fully executable", "dataset": "lb.json", "USUBJID": "CDISC004", "row": 824, "SEQ": 283, "variables": ["LBDTC", "RFPENDTC"], "values": ["2014-03-18T14:12", "2014-03-18"]}, {"core_id": "CORE-000720", "message": "LBDTC is greater than RFPENDTC", "executability": "fully executable", "dataset": "lb.json", "USUBJID": "CDISC004", "row": 825, "SEQ": 284, "variables": ["LBDTC", "RFPENDTC"], "values": ["2014-03-18T14:12", "2014-03-18"]}, {"core_id": "CORE-000720", "message": "LBDTC is greater than RFPENDTC", "executability": "fully executable", "dataset": "lb.json", "USUBJID": "CDISC004", "row": 826, "SEQ": 285, "variables": ["LBDTC", "RFPENDTC"], "values": ["2014-03-18T14:12", "2014-03-18"]}, {"core_id": "CORE-000720", "message": "LBDTC is greater than RFPENDTC", "executability": "fully executable", "dataset": "lb.json", "USUBJID": "CDISC004", "row": 827, "SEQ": 286, "variables": ["LBDTC", "RFPENDTC"], "values": ["2014-03-18T14:12", "2014-03-18"]}, {"core_id": "CORE-000720", "message": "LBDTC is greater than RFPENDTC", "executability": "fully executable", "dataset": "lb.json", "USUBJID": "CDISC004", "row": 828, "SEQ": 287, "variables": ["LBDTC", "RFPENDTC"], "values": ["2014-03-18T14:12", "2014-03-18"]}, {"core_id": "CORE-000720", "message": "LBDTC is greater than RFPENDTC", "executability": "fully executable", "dataset": "lb.json", "USUBJID": "CDISC004", "row": 829, "SEQ": 288, "variables": ["LBDTC", "RFPENDTC"], "values": ["2014-03-18T14:12", "2014-03-18"]}, {"core_id": "CORE-000720", "message": "LBDTC is greater than RFPENDTC", "executability": "fully executable", "dataset": "lb.json", "USUBJID": "CDISC004", "row": 830, "SEQ": 289, "variables": ["LBDTC", "RFPENDTC"], "values": ["2014-03-18T14:12", "2014-03-18"]}, {"core_id": "CORE-000720", "message": "LBDTC is greater than RFPENDTC", "executability": "fully executable", "dataset": "lb.json", "USUBJID": "CDISC004", "row": 831, "SEQ": 290, "variables": ["LBDTC", "RFPENDTC"], "values": ["2014-03-18T14:12", "2014-03-18"]}, {"core_id": "CORE-000720", "message": "LBDTC is greater than RFPENDTC", "executability": "fully executable", "dataset": "lb.json", "USUBJID": "CDISC004", "row": 832, "SEQ": 291, "variables": ["LBDTC", "RFPENDTC"], "values": ["2014-03-18T14:12", "2014-03-18"]}, {"core_id": "CORE-000720", "message": "LBDTC is greater than RFPENDTC", "executability": "fully executable", "dataset": "lb.json", "USUBJID": "CDISC004", "row": 833, "SEQ": 292, "variables": ["LBDTC", "RFPENDTC"], "values": ["2014-03-18T14:12", "2014-03-18"]}, {"core_id": "CORE-000720", "message": "LBDTC is greater than RFPENDTC", "executability": "fully executable", "dataset": "lb.json", "USUBJID": "CDISC005", "row": 1126, "SEQ": 293, "variables": ["LBDTC", "RFPENDTC"], "values": ["2013-08-06T12:00", "2013-08-06"]}, {"core_id": "CORE-000720", "message": "LBDTC is greater than RFPENDTC", "executability": "fully executable", "dataset": "lb.json", "USUBJID": "CDISC005", "row": 1127, "SEQ": 294, "variables": ["LBDTC", "RFPENDTC"], "values": ["2013-08-06T12:00", "2013-08-06"]}, {"core_id": "CORE-000720", "message": "LBDTC is greater than RFPENDTC", "executability": "fully executable", "dataset": "lb.json", "USUBJID": "CDISC005", "row": 1128, "SEQ": 295, "variables": ["LBDTC", "RFPENDTC"], "values": ["2013-08-06T12:00", "2013-08-06"]}, {"core_id": "CORE-000720", "message": "LBDTC is greater than RFPENDTC", "executability": "fully executable", "dataset": "lb.json", "USUBJID": "CDISC005", "row": 1129, "SEQ": 296, "variables": ["LBDTC", "RFPENDTC"], "values": ["2013-08-06T12:00", "2013-08-06"]}, {"core_id": "CORE-000720", "message": "LBDTC is greater than RFPENDTC", "executability": "fully executable", "dataset": "lb.json", "USUBJID": "CDISC005", "row": 1130, "SEQ": 297, "variables": ["LBDTC", "RFPENDTC"], "values": ["2013-08-06T12:00", "2013-08-06"]}, {"core_id": "CORE-000720", "message": "LBDTC is greater than RFPENDTC", "executability": "fully executable", "dataset": "lb.json", "USUBJID": "CDISC005", "row": 1131, "SEQ": 298, "variables": ["LBDTC", "RFPENDTC"], "values": ["2013-08-06T12:00", "2013-08-06"]}, {"core_id": "CORE-000720", "message": "LBDTC is greater than RFPENDTC", "executability": "fully executable", "dataset": "lb.json", "USUBJID": "CDISC005", "row": 1132, "SEQ": 299, "variables": ["LBDTC", "RFPENDTC"], "values": ["2013-08-06T12:00", "2013-08-06"]}, {"core_id": "CORE-000720", "message": "LBDTC is greater than RFPENDTC", "executability": "fully executable", "dataset": "lb.json", "USUBJID": "CDISC005", "row": 1133, "SEQ": 300, "variables": ["LBDTC", "RFPENDTC"], "values": ["2013-08-06T12:00", "2013-08-06"]}, {"core_id": "CORE-000720", "message": "LBDTC is greater than RFPENDTC", "executability": "fully executable", "dataset": "lb.json", "USUBJID": "CDISC005", "row": 1134, "SEQ": 301, "variables": ["LBDTC", "RFPENDTC"], "values": ["2013-08-06T12:00", "2013-08-06"]}, {"core_id": "CORE-000720", "message": "LBDTC is greater than RFPENDTC", "executability": "fully executable", "dataset": "lb.json", "USUBJID": "CDISC005", "row": 1135, "SEQ": 302, "variables": ["LBDTC", "RFPENDTC"], "values": ["2013-08-06T12:00", "2013-08-06"]}, {"core_id": "CORE-000720", "message": "LBDTC is greater than RFPENDTC", "executability": "fully executable", "dataset": "lb.json", "USUBJID": "CDISC005", "row": 1136, "SEQ": 303, "variables": ["LBDTC", "RFPENDTC"], "values": ["2013-08-06T12:00", "2013-08-06"]}, {"core_id": "CORE-000720", "message": "LBDTC is greater than RFPENDTC", "executability": "fully executable", "dataset": "lb.json", "USUBJID": "CDISC005", "row": 1137, "SEQ": 304, "variables": ["LBDTC", "RFPENDTC"], "values": ["2013-08-06T12:00", "2013-08-06"]}, {"core_id": "CORE-000720", "message": "LBDTC is greater than RFPENDTC", "executability": "fully executable", "dataset": "lb.json", "USUBJID": "CDISC005", "row": 1138, "SEQ": 305, "variables": ["LBDTC", "RFPENDTC"], "values": ["2013-08-06T12:00", "2013-08-06"]}, {"core_id": "CORE-000720", "message": "LBDTC is greater than RFPENDTC", "executability": "fully executable", "dataset": "lb.json", "USUBJID": "CDISC005", "row": 1139, "SEQ": 306, "variables": ["LBDTC", "RFPENDTC"], "values": ["2013-08-06T12:00", "2013-08-06"]}, {"core_id": "CORE-000720", "message": "LBDTC is greater than RFPENDTC", "executability": "fully executable", "dataset": "lb.json", "USUBJID": "CDISC005", "row": 1140, "SEQ": 307, "variables": ["LBDTC", "RFPENDTC"], "values": ["2013-08-06T12:00", "2013-08-06"]}, {"core_id": "CORE-000720", "message": "LBDTC is greater than RFPENDTC", "executability": "fully executable", "dataset": "lb.json", "USUBJID": "CDISC005", "row": 1141, "SEQ": 308, "variables": ["LBDTC", "RFPENDTC"], "values": ["2013-08-06T12:00", "2013-08-06"]}, {"core_id": "CORE-000720", "message": "LBDTC is greater than RFPENDTC", "executability": "fully executable", "dataset": "lb.json", "USUBJID": "CDISC005", "row": 1142, "SEQ": 309, "variables": ["LBDTC", "RFPENDTC"], "values": ["2013-08-06T12:00", "2013-08-06"]}, {"core_id": "CORE-000720", "message": "LBDTC is greater than RFPENDTC", "executability": "fully executable", "dataset": "lb.json", "USUBJID": "CDISC005", "row": 1143, "SEQ": 310, "variables": ["LBDTC", "RFPENDTC"], "values": ["2013-08-06T12:00", "2013-08-06"]}, {"core_id": "CORE-000720", "message": "LBDTC is greater than RFPENDTC", "executability": "fully executable", "dataset": "lb.json", "USUBJID": "CDISC005", "row": 1144, "SEQ": 311, "variables": ["LBDTC", "RFPENDTC"], "values": ["2013-08-06T12:00", "2013-08-06"]}, {"core_id": "CORE-000720", "message": "LBDTC is greater than RFPENDTC", "executability": "fully executable", "dataset": "lb.json", "USUBJID": "CDISC005", "row": 1145, "SEQ": 312, "variables": ["LBDTC", "RFPENDTC"], "values": ["2013-08-06T12:00", "2013-08-06"]}, {"core_id": "CORE-000720", "message": "LBDTC is greater than RFPENDTC", "executability": "fully executable", "dataset": "lb.json", "USUBJID": "CDISC005", "row": 1146, "SEQ": 313, "variables": ["LBDTC", "RFPENDTC"], "values": ["2013-08-06T12:00", "2013-08-06"]}, {"core_id": "CORE-000720", "message": "LBDTC is greater than RFPENDTC", "executability": "fully executable", "dataset": "lb.json", "USUBJID": "CDISC005", "row": 1147, "SEQ": 314, "variables": ["LBDTC", "RFPENDTC"], "values": ["2013-08-06T12:00", "2013-08-06"]}, {"core_id": "CORE-000720", "message": "LBDTC is greater than RFPENDTC", "executability": "fully executable", "dataset": "lb.json", "USUBJID": "CDISC005", "row": 1148, "SEQ": 315, "variables": ["LBDTC", "RFPENDTC"], "values": ["2013-08-06T12:00", "2013-08-06"]}, {"core_id": "CORE-000720", "message": "LBDTC is greater than RFPENDTC", "executability": "fully executable", "dataset": "lb.json", "USUBJID": "CDISC005", "row": 1149, "SEQ": 316, "variables": ["LBDTC", "RFPENDTC"], "values": ["2013-08-06T12:00", "2013-08-06"]}, {"core_id": "CORE-000720", "message": "LBDTC is greater than RFPENDTC", "executability": "fully executable", "dataset": "lb.json", "USUBJID": "CDISC005", "row": 1150, "SEQ": 317, "variables": ["LBDTC", "RFPENDTC"], "values": ["2013-08-06T12:00", "2013-08-06"]}, {"core_id": "CORE-000720", "message": "LBDTC is greater than RFPENDTC", "executability": "fully executable", "dataset": "lb.json", "USUBJID": "CDISC005", "row": 1151, "SEQ": 318, "variables": ["LBDTC", "RFPENDTC"], "values": ["2013-08-06T12:00", "2013-08-06"]}, {"core_id": "CORE-000720", "message": "LBDTC is greater than RFPENDTC", "executability": "fully executable", "dataset": "lb.json", "USUBJID": "CDISC005", "row": 1152, "SEQ": 319, "variables": ["LBDTC", "RFPENDTC"], "values": ["2013-08-06T12:00", "2013-08-06"]}, {"core_id": "CORE-000720", "message": "LBDTC is greater than RFPENDTC", "executability": "fully executable", "dataset": "lb.json", "USUBJID": "CDISC005", "row": 1153, "SEQ": 320, "variables": ["LBDTC", "RFPENDTC"], "values": ["2013-08-06T12:00", "2013-08-06"]}, {"core_id": "CORE-000720", "message": "LBDTC is greater than RFPENDTC", "executability": "fully executable", "dataset": "lb.json", "USUBJID": "CDISC005", "row": 1154, "SEQ": 321, "variables": ["LBDTC", "RFPENDTC"], "values": ["2013-08-06T12:00", "2013-08-06"]}, {"core_id": "CORE-000720", "message": "LBDTC is greater than RFPENDTC", "executability": "fully executable", "dataset": "lb.json", "USUBJID": "CDISC005", "row": 1155, "SEQ": 322, "variables": ["LBDTC", "RFPENDTC"], "values": ["2013-08-06T12:00", "2013-08-06"]}, {"core_id": "CORE-000720", "message": "LBDTC is greater than RFPENDTC", "executability": "fully executable", "dataset": "lb.json", "USUBJID": "CDISC006", "row": 1258, "SEQ": 103, "variables": ["LBDTC", "RFPENDTC"], "values": ["2013-04-30T12:22", "2013-04-30"]}, {"core_id": "CORE-000720", "message": "LBDTC is greater than RFPENDTC", "executability": "fully executable", "dataset": "lb.json", "USUBJID": "CDISC006", "row": 1259, "SEQ": 104, "variables": ["LBDTC", "RFPENDTC"], "values": ["2013-04-30T12:22", "2013-04-30"]}, {"core_id": "CORE-000720", "message": "LBDTC is greater than RFPENDTC", "executability": "fully executable", "dataset": "lb.json", "USUBJID": "CDISC006", "row": 1260, "SEQ": 105, "variables": ["LBDTC", "RFPENDTC"], "values": ["2013-04-30T12:22", "2013-04-30"]}, {"core_id": "CORE-000720", "message": "LBDTC is greater than RFPENDTC", "executability": "fully executable", "dataset": "lb.json", "USUBJID": "CDISC006", "row": 1261, "SEQ": 106, "variables": ["LBDTC", "RFPENDTC"], "values": ["2013-04-30T12:22", "2013-04-30"]}, {"core_id": "CORE-000720", "message": "LBDTC is greater than RFPENDTC", "executability": "fully executable", "dataset": "lb.json", "USUBJID": "CDISC006", "row": 1262, "SEQ": 107, "variables": ["LBDTC", "RFPENDTC"], "values": ["2013-04-30T12:22", "2013-04-30"]}, {"core_id": "CORE-000720", "message": "LBDTC is greater than RFPENDTC", "executability": "fully executable", "dataset": "lb.json", "USUBJID": "CDISC006", "row": 1263, "SEQ": 108, "variables": ["LBDTC", "RFPENDTC"], "values": ["2013-04-30T12:22", "2013-04-30"]}, {"core_id": "CORE-000720", "message": "LBDTC is greater than RFPENDTC", "executability": "fully executable", "dataset": "lb.json", "USUBJID": "CDISC006", "row": 1264, "SEQ": 109, "variables": ["LBDTC", "RFPENDTC"], "values": ["2013-04-30T12:22", "2013-04-30"]}, {"core_id": "CORE-000720", "message": "LBDTC is greater than RFPENDTC", "executability": "fully executable", "dataset": "lb.json", "USUBJID": "CDISC006", "row": 1265, "SEQ": 110, "variables": ["LBDTC", "RFPENDTC"], "values": ["2013-04-30T12:22", "2013-04-30"]}, {"core_id": "CORE-000720", "message": "LBDTC is greater than RFPENDTC", "executability": "fully executable", "dataset": "lb.json", "USUBJID": "CDISC006", "row": 1266, "SEQ": 111, "variables": ["LBDTC", "RFPENDTC"], "values": ["2013-04-30T12:22", "2013-04-30"]}, {"core_id": "CORE-000720", "message": "LBDTC is greater than RFPENDTC", "executability": "fully executable", "dataset": "lb.json", "USUBJID": "CDISC006", "row": 1267, "SEQ": 112, "variables": ["LBDTC", "RFPENDTC"], "values": ["2013-04-30T12:22", "2013-04-30"]}, {"core_id": "CORE-000720", "message": "LBDTC is greater than RFPENDTC", "executability": "fully executable", "dataset": "lb.json", "USUBJID": "CDISC006", "row": 1268, "SEQ": 113, "variables": ["LBDTC", "RFPENDTC"], "values": ["2013-04-30T12:22", "2013-04-30"]}, {"core_id": "CORE-000720", "message": "LBDTC is greater than RFPENDTC", "executability": "fully executable", "dataset": "lb.json", "USUBJID": "CDISC006", "row": 1269, "SEQ": 114, "variables": ["LBDTC", "RFPENDTC"], "values": ["2013-04-30T12:22", "2013-04-30"]}, {"core_id": "CORE-000720", "message": "LBDTC is greater than RFPENDTC", "executability": "fully executable", "dataset": "lb.json", "USUBJID": "CDISC006", "row": 1270, "SEQ": 115, "variables": ["LBDTC", "RFPENDTC"], "values": ["2013-04-30T12:22", "2013-04-30"]}, {"core_id": "CORE-000720", "message": "LBDTC is greater than RFPENDTC", "executability": "fully executable", "dataset": "lb.json", "USUBJID": "CDISC006", "row": 1271, "SEQ": 116, "variables": ["LBDTC", "RFPENDTC"], "values": ["2013-04-30T12:22", "2013-04-30"]}, {"core_id": "CORE-000720", "message": "LBDTC is greater than RFPENDTC", "executability": "fully executable", "dataset": "lb.json", "USUBJID": "CDISC006", "row": 1272, "SEQ": 117, "variables": ["LBDTC", "RFPENDTC"], "values": ["2013-04-30T12:22", "2013-04-30"]}, {"core_id": "CORE-000720", "message": "LBDTC is greater than RFPENDTC", "executability": "fully executable", "dataset": "lb.json", "USUBJID": "CDISC006", "row": 1273, "SEQ": 118, "variables": ["LBDTC", "RFPENDTC"], "values": ["2013-04-30T12:22", "2013-04-30"]}, {"core_id": "CORE-000720", "message": "LBDTC is greater than RFPENDTC", "executability": "fully executable", "dataset": "lb.json", "USUBJID": "CDISC006", "row": 1274, "SEQ": 119, "variables": ["LBDTC", "RFPENDTC"], "values": ["2013-04-30T12:22", "2013-04-30"]}, {"core_id": "CORE-000720", "message": "LBDTC is greater than RFPENDTC", "executability": "fully executable", "dataset": "lb.json", "USUBJID": "CDISC006", "row": 1275, "SEQ": 120, "variables": ["LBDTC", "RFPENDTC"], "values": ["2013-04-30T12:22", "2013-04-30"]}, {"core_id": "CORE-000720", "message": "LBDTC is greater than RFPENDTC", "executability": "fully executable", "dataset": "lb.json", "USUBJID": "CDISC006", "row": 1276, "SEQ": 121, "variables": ["LBDTC", "RFPENDTC"], "values": ["2013-04-30T12:22", "2013-04-30"]}, {"core_id": "CORE-000720", "message": "LBDTC is greater than RFPENDTC", "executability": "fully executable", "dataset": "lb.json", "USUBJID": "CDISC006", "row": 1277, "SEQ": 122, "variables": ["LBDTC", "RFPENDTC"], "values": ["2013-04-30T12:22", "2013-04-30"]}, {"core_id": "CORE-000720", "message": "LBDTC is greater than RFPENDTC", "executability": "fully executable", "dataset": "lb.json", "USUBJID": "CDISC006", "row": 1278, "SEQ": 123, "variables": ["LBDTC", "RFPENDTC"], "values": ["2013-04-30T12:22", "2013-04-30"]}, {"core_id": "CORE-000720", "message": "LBDTC is greater than RFPENDTC", "executability": "fully executable", "dataset": "lb.json", "USUBJID": "CDISC006", "row": 1279, "SEQ": 124, "variables": ["LBDTC", "RFPENDTC"], "values": ["2013-04-30T12:22", "2013-04-30"]}, {"core_id": "CORE-000720", "message": "LBDTC is greater than RFPENDTC", "executability": "fully executable", "dataset": "lb.json", "USUBJID": "CDISC006", "row": 1280, "SEQ": 125, "variables": ["LBDTC", "RFPENDTC"], "values": ["2013-04-30T12:22", "2013-04-30"]}, {"core_id": "CORE-000720", "message": "LBDTC is greater than RFPENDTC", "executability": "fully executable", "dataset": "lb.json", "USUBJID": "CDISC006", "row": 1281, "SEQ": 126, "variables": ["LBDTC", "RFPENDTC"], "values": ["2013-04-30T12:22", "2013-04-30"]}, {"core_id": "CORE-000720", "message": "LBDTC is greater than RFPENDTC", "executability": "fully executable", "dataset": "lb.json", "USUBJID": "CDISC006", "row": 1282, "SEQ": 127, "variables": ["LBDTC", "RFPENDTC"], "values": ["2013-04-30T12:22", "2013-04-30"]}, {"core_id": "CORE-000720", "message": "LBDTC is greater than RFPENDTC", "executability": "fully executable", "dataset": "lb.json", "USUBJID": "CDISC006", "row": 1283, "SEQ": 128, "variables": ["LBDTC", "RFPENDTC"], "values": ["2013-04-30T12:22", "2013-04-30"]}, {"core_id": "CORE-000720", "message": "LBDTC is greater than RFPENDTC", "executability": "fully executable", "dataset": "lb.json", "USUBJID": "CDISC006", "row": 1284, "SEQ": 129, "variables": ["LBDTC", "RFPENDTC"], "values": ["2013-04-30T12:22", "2013-04-30"]}, {"core_id": "CORE-000720", "message": "LBDTC is greater than RFPENDTC", "executability": "fully executable", "dataset": "lb.json", "USUBJID": "CDISC006", "row": 1285, "SEQ": 130, "variables": ["LBDTC", "RFPENDTC"], "values": ["2013-04-30T12:22", "2013-04-30"]}, {"core_id": "CORE-000720", "message": "LBDTC is greater than RFPENDTC", "executability": "fully executable", "dataset": "lb.json", "USUBJID": "CDISC006", "row": 1286, "SEQ": 131, "variables": ["LBDTC", "RFPENDTC"], "values": ["2013-04-30T12:22", "2013-04-30"]}, {"core_id": "CORE-000720", "message": "LBDTC is greater than RFPENDTC", "executability": "fully executable", "dataset": "lb.json", "USUBJID": "CDISC006", "row": 1287, "SEQ": 132, "variables": ["LBDTC", "RFPENDTC"], "values": ["2013-04-30T12:22", "2013-04-30"]}, {"core_id": "CORE-000720", "message": "LBDTC is greater than RFPENDTC", "executability": "fully executable", "dataset": "lb.json", "USUBJID": "CDISC006", "row": 1288, "SEQ": 133, "variables": ["LBDTC", "RFPENDTC"], "values": ["2013-04-30T12:22", "2013-04-30"]}, {"core_id": "CORE-000720", "message": "LBDTC is greater than RFPENDTC", "executability": "fully executable", "dataset": "lb.json", "USUBJID": "CDISC006", "row": 1289, "SEQ": 134, "variables": ["LBDTC", "RFPENDTC"], "values": ["2013-04-30T12:22", "2013-04-30"]}, {"core_id": "CORE-000720", "message": "LBDTC is greater than RFPENDTC", "executability": "fully executable", "dataset": "lb.json", "USUBJID": "CDISC006", "row": 1290, "SEQ": 135, "variables": ["LBDTC", "RFPENDTC"], "values": ["2013-04-30T12:22", "2013-04-30"]}, {"core_id": "CORE-000720", "message": "LBDTC is greater than RFPENDTC", "executability": "fully executable", "dataset": "lb.json", "USUBJID": "CDISC006", "row": 1291, "SEQ": 136, "variables": ["LBDTC", "RFPENDTC"], "values": ["2013-04-30T12:22", "2013-04-30"]}, {"core_id": "CORE-000720", "message": "LBDTC is greater than RFPENDTC", "executability": "fully executable", "dataset": "lb.json", "USUBJID": "CDISC006", "row": 1292, "SEQ": 137, "variables": ["LBDTC", "RFPENDTC"], "values": ["2013-04-30T12:22", "2013-04-30"]}, {"core_id": "CORE-000720", "message": "LBDTC is greater than RFPENDTC", "executability": "fully executable", "dataset": "lb.json", "USUBJID": "CDISC009", "row": 1997, "SEQ": 294, "variables": ["LBDTC", "RFPENDTC"], "values": ["2013-04-28T12:40", "2013-04-28"]}, {"core_id": "CORE-000720", "message": "LBDTC is greater than RFPENDTC", "executability": "fully executable", "dataset": "lb.json", "USUBJID": "CDISC009", "row": 1998, "SEQ": 295, "variables": ["LBDTC", "RFPENDTC"], "values": ["2013-04-28T12:40", "2013-04-28"]}, {"core_id": "CORE-000720", "message": "LBDTC is greater than RFPENDTC", "executability": "fully executable", "dataset": "lb.json", "USUBJID": "CDISC009", "row": 1999, "SEQ": 296, "variables": ["LBDTC", "RFPENDTC"], "values": ["2013-04-28T12:40", "2013-04-28"]}, {"core_id": "CORE-000720", "message": "LBDTC is greater than RFPENDTC", "executability": "fully executable", "dataset": "lb.json", "USUBJID": "CDISC009", "row": 2000, "SEQ": 297, "variables": ["LBDTC", "RFPENDTC"], "values": ["2013-04-28T12:40", "2013-04-28"]}, {"core_id": "CORE-000720", "message": "LBDTC is greater than RFPENDTC", "executability": "fully executable", "dataset": "lb.json", "USUBJID": "CDISC009", "row": 2001, "SEQ": 298, "variables": ["LBDTC", "RFPENDTC"], "values": ["2013-04-28T12:40", "2013-04-28"]}, {"core_id": "CORE-000720", "message": "LBDTC is greater than RFPENDTC", "executability": "fully executable", "dataset": "lb.json", "USUBJID": "CDISC009", "row": 2002, "SEQ": 299, "variables": ["LBDTC", "RFPENDTC"], "values": ["2013-04-28T12:40", "2013-04-28"]}, {"core_id": "CORE-000720", "message": "LBDTC is greater than RFPENDTC", "executability": "fully executable", "dataset": "lb.json", "USUBJID": "CDISC009", "row": 2003, "SEQ": 300, "variables": ["LBDTC", "RFPENDTC"], "values": ["2013-04-28T12:40", "2013-04-28"]}, {"core_id": "CORE-000720", "message": "LBDTC is greater than RFPENDTC", "executability": "fully executable", "dataset": "lb.json", "USUBJID": "CDISC009", "row": 2004, "SEQ": 301, "variables": ["LBDTC", "RFPENDTC"], "values": ["2013-04-28T12:40", "2013-04-28"]}, {"core_id": "CORE-000720", "message": "LBDTC is greater than RFPENDTC", "executability": "fully executable", "dataset": "lb.json", "USUBJID": "CDISC009", "row": 2005, "SEQ": 302, "variables": ["LBDTC", "RFPENDTC"], "values": ["2013-04-28T12:40", "2013-04-28"]}, {"core_id": "CORE-000720", "message": "LBDTC is greater than RFPENDTC", "executability": "fully executable", "dataset": "lb.json", "USUBJID": "CDISC009", "row": 2006, "SEQ": 303, "variables": ["LBDTC", "RFPENDTC"], "values": ["2013-04-28T12:40", "2013-04-28"]}, {"core_id": "CORE-000720", "message": "LBDTC is greater than RFPENDTC", "executability": "fully executable", "dataset": "lb.json", "USUBJID": "CDISC009", "row": 2007, "SEQ": 304, "variables": ["LBDTC", "RFPENDTC"], "values": ["2013-04-28T12:40", "2013-04-28"]}, {"core_id": "CORE-000720", "message": "LBDTC is greater than RFPENDTC", "executability": "fully executable", "dataset": "lb.json", "USUBJID": "CDISC009", "row": 2008, "SEQ": 305, "variables": ["LBDTC", "RFPENDTC"], "values": ["2013-04-28T12:40", "2013-04-28"]}, {"core_id": "CORE-000720", "message": "LBDTC is greater than RFPENDTC", "executability": "fully executable", "dataset": "lb.json", "USUBJID": "CDISC009", "row": 2009, "SEQ": 306, "variables": ["LBDTC", "RFPENDTC"], "values": ["2013-04-28T12:40", "2013-04-28"]}, {"core_id": "CORE-000720", "message": "LBDTC is greater than RFPENDTC", "executability": "fully executable", "dataset": "lb.json", "USUBJID": "CDISC009", "row": 2010, "SEQ": 307, "variables": ["LBDTC", "RFPENDTC"], "values": ["2013-04-28T12:40", "2013-04-28"]}, {"core_id": "CORE-000720", "message": "LBDTC is greater than RFPENDTC", "executability": "fully executable", "dataset": "lb.json", "USUBJID": "CDISC009", "row": 2011, "SEQ": 308, "variables": ["LBDTC", "RFPENDTC"], "values": ["2013-04-28T12:40", "2013-04-28"]}, {"core_id": "CORE-000720", "message": "LBDTC is greater than RFPENDTC", "executability": "fully executable", "dataset": "lb.json", "USUBJID": "CDISC009", "row": 2012, "SEQ": 309, "variables": ["LBDTC", "RFPENDTC"], "values": ["2013-04-28T12:40", "2013-04-28"]}, {"core_id": "CORE-000720", "message": "LBDTC is greater than RFPENDTC", "executability": "fully executable", "dataset": "lb.json", "USUBJID": "CDISC009", "row": 2013, "SEQ": 310, "variables": ["LBDTC", "RFPENDTC"], "values": ["2013-04-28T12:40", "2013-04-28"]}, {"core_id": "CORE-000720", "message": "LBDTC is greater than RFPENDTC", "executability": "fully executable", "dataset": "lb.json", "USUBJID": "CDISC009", "row": 2014, "SEQ": 311, "variables": ["LBDTC", "RFPENDTC"], "values": ["2013-04-28T12:40", "2013-04-28"]}, {"core_id": "CORE-000720", "message": "LBDTC is greater than RFPENDTC", "executability": "fully executable", "dataset": "lb.json", "USUBJID": "CDISC009", "row": 2015, "SEQ": 312, "variables": ["LBDTC", "RFPENDTC"], "values": ["2013-04-28T12:40", "2013-04-28"]}, {"core_id": "CORE-000720", "message": "LBDTC is greater than RFPENDTC", "executability": "fully executable", "dataset": "lb.json", "USUBJID": "CDISC009", "row": 2016, "SEQ": 313, "variables": ["LBDTC", "RFPENDTC"], "values": ["2013-04-28T12:40", "2013-04-28"]}, {"core_id": "CORE-000720", "message": "LBDTC is greater than RFPENDTC", "executability": "fully executable", "dataset": "lb.json", "USUBJID": "CDISC009", "row": 2017, "SEQ": 314, "variables": ["LBDTC", "RFPENDTC"], "values": ["2013-04-28T12:40", "2013-04-28"]}, {"core_id": "CORE-000720", "message": "LBDTC is greater than RFPENDTC", "executability": "fully executable", "dataset": "lb.json", "USUBJID": "CDISC009", "row": 2018, "SEQ": 315, "variables": ["LBDTC", "RFPENDTC"], "values": ["2013-04-28T12:40", "2013-04-28"]}, {"core_id": "CORE-000720", "message": "LBDTC is greater than RFPENDTC", "executability": "fully executable", "dataset": "lb.json", "USUBJID": "CDISC009", "row": 2019, "SEQ": 316, "variables": ["LBDTC", "RFPENDTC"], "values": ["2013-04-28T12:40", "2013-04-28"]}, {"core_id": "CORE-000720", "message": "LBDTC is greater than RFPENDTC", "executability": "fully executable", "dataset": "lb.json", "USUBJID": "CDISC009", "row": 2020, "SEQ": 317, "variables": ["LBDTC", "RFPENDTC"], "values": ["2013-04-28T12:40", "2013-04-28"]}, {"core_id": "CORE-000720", "message": "LBDTC is greater than RFPENDTC", "executability": "fully executable", "dataset": "lb.json", "USUBJID": "CDISC009", "row": 2021, "SEQ": 318, "variables": ["LBDTC", "RFPENDTC"], "values": ["2013-04-28T12:40", "2013-04-28"]}, {"core_id": "CORE-000720", "message": "LBDTC is greater than RFPENDTC", "executability": "fully executable", "dataset": "lb.json", "USUBJID": "CDISC009", "row": 2022, "SEQ": 319, "variables": ["LBDTC", "RFPENDTC"], "values": ["2013-04-28T12:40", "2013-04-28"]}, {"core_id": "CORE-000720", "message": "LBDTC is greater than RFPENDTC", "executability": "fully executable", "dataset": "lb.json", "USUBJID": "CDISC009", "row": 2023, "SEQ": 320, "variables": ["LBDTC", "RFPENDTC"], "values": ["2013-04-28T12:40", "2013-04-28"]}, {"core_id": "CORE-000720", "message": "LBDTC is greater than RFPENDTC", "executability": "fully executable", "dataset": "lb.json", "USUBJID": "CDISC009", "row": 2024, "SEQ": 321, "variables": ["LBDTC", "RFPENDTC"], "values": ["2013-04-28T12:40", "2013-04-28"]}, {"core_id": "CORE-000720", "message": "LBDTC is greater than RFPENDTC", "executability": "fully executable", "dataset": "lb.json", "USUBJID": "CDISC009", "row": 2025, "SEQ": 322, "variables": ["LBDTC", "RFPENDTC"], "values": ["2013-04-28T12:40", "2013-04-28"]}, {"core_id": "CORE-000720", "message": "LBDTC is greater than RFPENDTC", "executability": "fully executable", "dataset": "lb.json", "USUBJID": "CDISC009", "row": 2026, "SEQ": 323, "variables": ["LBDTC", "RFPENDTC"], "values": ["2013-04-28T12:40", "2013-04-28"]}, {"core_id": "CORE-000720", "message": "LBDTC is greater than RFPENDTC", "executability": "fully executable", "dataset": "lb.json", "USUBJID": "CDISC012", "row": 2642, "SEQ": 228, "variables": ["LBDTC", "RFPENDTC"], "values": ["2014-01-28T13:00", "2014-01-28"]}, {"core_id": "CORE-000720", "message": "LBDTC is greater than RFPENDTC", "executability": "fully executable", "dataset": "lb.json", "USUBJID": "CDISC012", "row": 2643, "SEQ": 229, "variables": ["LBDTC", "RFPENDTC"], "values": ["2014-01-28T13:00", "2014-01-28"]}, {"core_id": "CORE-000720", "message": "LBDTC is greater than RFPENDTC", "executability": "fully executable", "dataset": "lb.json", "USUBJID": "CDISC012", "row": 2644, "SEQ": 230, "variables": ["LBDTC", "RFPENDTC"], "values": ["2014-01-28T13:00", "2014-01-28"]}, {"core_id": "CORE-000720", "message": "LBDTC is greater than RFPENDTC", "executability": "fully executable", "dataset": "lb.json", "USUBJID": "CDISC012", "row": 2645, "SEQ": 231, "variables": ["LBDTC", "RFPENDTC"], "values": ["2014-01-28T13:00", "2014-01-28"]}, {"core_id": "CORE-000720", "message": "LBDTC is greater than RFPENDTC", "executability": "fully executable", "dataset": "lb.json", "USUBJID": "CDISC012", "row": 2646, "SEQ": 232, "variables": ["LBDTC", "RFPENDTC"], "values": ["2014-01-28T13:00", "2014-01-28"]}, {"core_id": "CORE-000720", "message": "LBDTC is greater than RFPENDTC", "executability": "fully executable", "dataset": "lb.json", "USUBJID": "CDISC012", "row": 2647, "SEQ": 233, "variables": ["LBDTC", "RFPENDTC"], "values": ["2014-01-28T13:00", "2014-01-28"]}, {"core_id": "CORE-000720", "message": "LBDTC is greater than RFPENDTC", "executability": "fully executable", "dataset": "lb.json", "USUBJID": "CDISC012", "row": 2648, "SEQ": 234, "variables": ["LBDTC", "RFPENDTC"], "values": ["2014-01-28T13:00", "2014-01-28"]}, {"core_id": "CORE-000720", "message": "LBDTC is greater than RFPENDTC", "executability": "fully executable", "dataset": "lb.json", "USUBJID": "CDISC012", "row": 2649, "SEQ": 235, "variables": ["LBDTC", "RFPENDTC"], "values": ["2014-01-28T13:00", "2014-01-28"]}, {"core_id": "CORE-000720", "message": "LBDTC is greater than RFPENDTC", "executability": "fully executable", "dataset": "lb.json", "USUBJID": "CDISC012", "row": 2650, "SEQ": 236, "variables": ["LBDTC", "RFPENDTC"], "values": ["2014-01-28T13:00", "2014-01-28"]}, {"core_id": "CORE-000720", "message": "LBDTC is greater than RFPENDTC", "executability": "fully executable", "dataset": "lb.json", "USUBJID": "CDISC012", "row": 2651, "SEQ": 237, "variables": ["LBDTC", "RFPENDTC"], "values": ["2014-01-28T13:00", "2014-01-28"]}, {"core_id": "CORE-000720", "message": "LBDTC is greater than RFPENDTC", "executability": "fully executable", "dataset": "lb.json", "USUBJID": "CDISC012", "row": 2652, "SEQ": 238, "variables": ["LBDTC", "RFPENDTC"], "values": ["2014-01-28T13:00", "2014-01-28"]}, {"core_id": "CORE-000720", "message": "LBDTC is greater than RFPENDTC", "executability": "fully executable", "dataset": "lb.json", "USUBJID": "CDISC012", "row": 2653, "SEQ": 239, "variables": ["LBDTC", "RFPENDTC"], "values": ["2014-01-28T13:00", "2014-01-28"]}, {"core_id": "CORE-000720", "message": "LBDTC is greater than RFPENDTC", "executability": "fully executable", "dataset": "lb.json", "USUBJID": "CDISC012", "row": 2654, "SEQ": 240, "variables": ["LBDTC", "RFPENDTC"], "values": ["2014-01-28T13:00", "2014-01-28"]}, {"core_id": "CORE-000720", "message": "LBDTC is greater than RFPENDTC", "executability": "fully executable", "dataset": "lb.json", "USUBJID": "CDISC012", "row": 2655, "SEQ": 241, "variables": ["LBDTC", "RFPENDTC"], "values": ["2014-01-28T13:00", "2014-01-28"]}, {"core_id": "CORE-000720", "message": "LBDTC is greater than RFPENDTC", "executability": "fully executable", "dataset": "lb.json", "USUBJID": "CDISC012", "row": 2656, "SEQ": 242, "variables": ["LBDTC", "RFPENDTC"], "values": ["2014-01-28T13:00", "2014-01-28"]}, {"core_id": "CORE-000720", "message": "LBDTC is greater than RFPENDTC", "executability": "fully executable", "dataset": "lb.json", "USUBJID": "CDISC012", "row": 2657, "SEQ": 243, "variables": ["LBDTC", "RFPENDTC"], "values": ["2014-01-28T13:00", "2014-01-28"]}, {"core_id": "CORE-000720", "message": "LBDTC is greater than RFPENDTC", "executability": "fully executable", "dataset": "lb.json", "USUBJID": "CDISC012", "row": 2658, "SEQ": 244, "variables": ["LBDTC", "RFPENDTC"], "values": ["2014-01-28T13:00", "2014-01-28"]}, {"core_id": "CORE-000720", "message": "LBDTC is greater than RFPENDTC", "executability": "fully executable", "dataset": "lb.json", "USUBJID": "CDISC012", "row": 2659, "SEQ": 245, "variables": ["LBDTC", "RFPENDTC"], "values": ["2014-01-28T13:00", "2014-01-28"]}, {"core_id": "CORE-000720", "message": "LBDTC is greater than RFPENDTC", "executability": "fully executable", "dataset": "lb.json", "USUBJID": "CDISC012", "row": 2660, "SEQ": 246, "variables": ["LBDTC", "RFPENDTC"], "values": ["2014-01-28T13:00", "2014-01-28"]}, {"core_id": "CORE-000720", "message": "LBDTC is greater than RFPENDTC", "executability": "fully executable", "dataset": "lb.json", "USUBJID": "CDISC012", "row": 2661, "SEQ": 247, "variables": ["LBDTC", "RFPENDTC"], "values": ["2014-01-28T13:00", "2014-01-28"]}, {"core_id": "CORE-000720", "message": "LBDTC is greater than RFPENDTC", "executability": "fully executable", "dataset": "lb.json", "USUBJID": "CDISC012", "row": 2662, "SEQ": 248, "variables": ["LBDTC", "RFPENDTC"], "values": ["2014-01-28T13:00", "2014-01-28"]}, {"core_id": "CORE-000720", "message": "LBDTC is greater than RFPENDTC", "executability": "fully executable", "dataset": "lb.json", "USUBJID": "CDISC012", "row": 2663, "SEQ": 249, "variables": ["LBDTC", "RFPENDTC"], "values": ["2014-01-28T13:00", "2014-01-28"]}, {"core_id": "CORE-000720", "message": "LBDTC is greater than RFPENDTC", "executability": "fully executable", "dataset": "lb.json", "USUBJID": "CDISC012", "row": 2664, "SEQ": 250, "variables": ["LBDTC", "RFPENDTC"], "values": ["2014-01-28T13:00", "2014-01-28"]}, {"core_id": "CORE-000720", "message": "LBDTC is greater than RFPENDTC", "executability": "fully executable", "dataset": "lb.json", "USUBJID": "CDISC012", "row": 2665, "SEQ": 251, "variables": ["LBDTC", "RFPENDTC"], "values": ["2014-01-28T13:00", "2014-01-28"]}, {"core_id": "CORE-000720", "message": "LBDTC is greater than RFPENDTC", "executability": "fully executable", "dataset": "lb.json", "USUBJID": "CDISC012", "row": 2666, "SEQ": 252, "variables": ["LBDTC", "RFPENDTC"], "values": ["2014-01-28T13:00", "2014-01-28"]}, {"core_id": "CORE-000720", "message": "LBDTC is greater than RFPENDTC", "executability": "fully executable", "dataset": "lb.json", "USUBJID": "CDISC012", "row": 2667, "SEQ": 253, "variables": ["LBDTC", "RFPENDTC"], "values": ["2014-01-28T13:00", "2014-01-28"]}, {"core_id": "CORE-000720", "message": "LBDTC is greater than RFPENDTC", "executability": "fully executable", "dataset": "lb.json", "USUBJID": "CDISC012", "row": 2668, "SEQ": 254, "variables": ["LBDTC", "RFPENDTC"], "values": ["2014-01-28T13:00", "2014-01-28"]}, {"core_id": "CORE-000720", "message": "LBDTC is greater than RFPENDTC", "executability": "fully executable", "dataset": "lb.json", "USUBJID": "CDISC012", "row": 2669, "SEQ": 255, "variables": ["LBDTC", "RFPENDTC"], "values": ["2014-01-28T13:00", "2014-01-28"]}, {"core_id": "CORE-000720", "message": "LBDTC is greater than RFPENDTC", "executability": "fully executable", "dataset": "lb.json", "USUBJID": "CDISC012", "row": 2670, "SEQ": 256, "variables": ["LBDTC", "RFPENDTC"], "values": ["2014-01-28T13:00", "2014-01-28"]}, {"core_id": "CORE-000720", "message": "LBDTC is greater than RFPENDTC", "executability": "fully executable", "dataset": "lb.json", "USUBJID": "CDISC012", "row": 2671, "SEQ": 257, "variables": ["LBDTC", "RFPENDTC"], "values": ["2014-01-28T13:00", "2014-01-28"]}, {"core_id": "CORE-000720", "message": "LBDTC is greater than RFPENDTC", "executability": "fully executable", "dataset": "lb.json", "USUBJID": "CDISC012", "row": 2672, "SEQ": 258, "variables": ["LBDTC", "RFPENDTC"], "values": ["2014-01-28T13:00", "2014-01-28"]}, {"core_id": "CORE-000720", "message": "LBDTC is greater than RFPENDTC", "executability": "fully executable", "dataset": "lb.json", "USUBJID": "CDISC012", "row": 2673, "SEQ": 259, "variables": ["LBDTC", "RFPENDTC"], "values": ["2014-01-28T13:00", "2014-01-28"]}, {"core_id": "CORE-000720", "message": "LBDTC is greater than RFPENDTC", "executability": "fully executable", "dataset": "lb.json", "USUBJID": "CDISC012", "row": 2674, "SEQ": 260, "variables": ["LBDTC", "RFPENDTC"], "values": ["2014-01-28T13:00", "2014-01-28"]}, {"core_id": "CORE-000720", "message": "LBDTC is greater than RFPENDTC", "executability": "fully executable", "dataset": "lb.json", "USUBJID": "CDISC012", "row": 2675, "SEQ": 261, "variables": ["LBDTC", "RFPENDTC"], "values": ["2014-01-28T13:00", "2014-01-28"]}, {"core_id": "CORE-000720", "message": "LBDTC is greater than RFPENDTC", "executability": "fully executable", "dataset": "lb.json", "USUBJID": "CDISC012", "row": 2676, "SEQ": 262, "variables": ["LBDTC", "RFPENDTC"], "values": ["2014-01-28T13:00", "2014-01-28"]}, {"core_id": "CORE-000741", "message": "The set  ('INTMODEL\u2019, 'INTTYPE','PCLASS') is not in the list of TSPARAMCD with TSVAL populated.", "executability": "fully executable", "dataset": "ts.json", "USUBJID": "", "row": 1, "SEQ": 1, "variables": ["$STYPE_INTERVENTIONAL", "TSPARMCD", "TSVAL"], "values": ["1", "ACTSUB", "18"]}, {"core_id": "CORE-000744", "message": "Related record is present in the parent domain dataset but FAOBJ is not equal to the \"TERM\", \"TRT\" or \"DECOD\" of the parent domain.", "executability": "fully executable", "dataset": "fa.json", "USUBJID": "CDISC001", "row": 1, "SEQ": 1, "variables": ["FAOBJ", "RELREC.**DECOD", "RELREC.**TERM", "RELREC.**TRT"], "values": ["ERYTHEMA", "null", "INJECTION SITE REACTION", "Not in dataset"]}, {"core_id": "CORE-000744", "message": "Related record is present in the parent domain dataset but FAOBJ is not equal to the \"TERM\", \"TRT\" or \"DECOD\" of the parent domain.", "executability": "fully executable", "dataset": "fa.json", "USUBJID": "CDISC001", "row": 2, "SEQ": 2, "variables": ["FAOBJ", "RELREC.**DECOD", "RELREC.**TERM", "RELREC.**TRT"], "values": ["ERYTHEMA", "null", "INJECTION SITE REACTION", "Not in dataset"]}, {"core_id": "CORE-000744", "message": "Related record is present in the parent domain dataset but FAOBJ is not equal to the \"TERM\", \"TRT\" or \"DECOD\" of the parent domain.", "executability": "fully executable", "dataset": "fa.json", "USUBJID": "CDISC001", "row": 3, "SEQ": 3, "variables": ["FAOBJ", "RELREC.**DECOD", "RELREC.**TERM", "RELREC.**TRT"], "values": ["PAIN", "null", "INJECTION SITE REACTION", "Not in dataset"]}, {"core_id": "CORE-000744", "message": "Related record is present in the parent domain dataset but FAOBJ is not equal to the \"TERM\", \"TRT\" or \"DECOD\" of the parent domain.", "executability": "fully executable", "dataset": "fa.json", "USUBJID": "CDISC001", "row": 4, "SEQ": 4, "variables": ["FAOBJ", "RELREC.**DECOD", "RELREC.**TERM", "RELREC.**TRT"], "values": ["INDURATION", "null", "INJECTION SITE REACTION", "Not in dataset"]}, {"core_id": "CORE-000744", "message": "Related record is present in the parent domain dataset but FAOBJ is not equal to the \"TERM\", \"TRT\" or \"DECOD\" of the parent domain.", "executability": "fully executable", "dataset": "fa.json", "USUBJID": "CDISC001", "row": 5, "SEQ": 5, "variables": ["FAOBJ", "RELREC.**DECOD", "RELREC.**TERM", "RELREC.**TRT"], "values": ["PRURITIS", "null", "INJECTION SITE REACTION", "Not in dataset"]}, {"core_id": "CORE-000744", "message": "Related record is present in the parent domain dataset but FAOBJ is not equal to the \"TERM\", \"TRT\" or \"DECOD\" of the parent domain.", "executability": "fully executable", "dataset": "fa.json", "USUBJID": "CDISC001", "row": 6, "SEQ": 6, "variables": ["FAOBJ", "RELREC.**DECOD", "RELREC.**TERM", "RELREC.**TRT"], "values": ["EDEMA", "null", "INJECTION SITE REACTION", "Not in dataset"]}, {"core_id": "CORE-000744", "message": "Related record is present in the parent domain dataset but FAOBJ is not equal to the \"TERM\", \"TRT\" or \"DECOD\" of the parent domain.", "executability": "fully executable", "dataset": "fa.json", "USUBJID": "CDISC002", "row": 7, "SEQ": 1, "variables": ["FAOBJ", "RELREC.**DECOD", "RELREC.**TERM", "RELREC.**TRT"], "values": ["ERYTHEMA", "null", "INJECTION SITE REACTION", "Not in dataset"]}, {"core_id": "CORE-000744", "message": "Related record is present in the parent domain dataset but FAOBJ is not equal to the \"TERM\", \"TRT\" or \"DECOD\" of the parent domain.", "executability": "fully executable", "dataset": "fa.json", "USUBJID": "CDISC002", "row": 8, "SEQ": 2, "variables": ["FAOBJ", "RELREC.**DECOD", "RELREC.**TERM", "RELREC.**TRT"], "values": ["PAIN", "null", "INJECTION SITE REACTION", "Not in dataset"]}, {"core_id": "CORE-000744", "message": "Related record is present in the parent domain dataset but FAOBJ is not equal to the \"TERM\", \"TRT\" or \"DECOD\" of the parent domain.", "executability": "fully executable", "dataset": "fa.json", "USUBJID": "CDISC002", "row": 9, "SEQ": 3, "variables": ["FAOBJ", "RELREC.**DECOD", "RELREC.**TERM", "RELREC.**TRT"], "values": ["INDURATION", "null", "INJECTION SITE REACTION", "Not in dataset"]}, {"core_id": "CORE-000744", "message": "Related record is present in the parent domain dataset but FAOBJ is not equal to the \"TERM\", \"TRT\" or \"DECOD\" of the parent domain.", "executability": "fully executable", "dataset": "fa.json", "USUBJID": "CDISC002", "row": 10, "SEQ": 4, "variables": ["FAOBJ", "RELREC.**DECOD", "RELREC.**TERM", "RELREC.**TRT"], "values": ["PRURITIS", "null", "INJECTION SITE REACTION", "Not in dataset"]}, {"core_id": "CORE-000744", "message": "Related record is present in the parent domain dataset but FAOBJ is not equal to the \"TERM\", \"TRT\" or \"DECOD\" of the parent domain.", "executability": "fully executable", "dataset": "fa.json", "USUBJID": "CDISC002", "row": 11, "SEQ": 5, "variables": ["FAOBJ", "RELREC.**DECOD", "RELREC.**TERM", "RELREC.**TRT"], "values": ["PRURITIS", "null", "INJECTION SITE REACTION", "Not in dataset"]}, {"core_id": "CORE-000744", "message": "Related record is present in the parent domain dataset but FAOBJ is not equal to the \"TERM\", \"TRT\" or \"DECOD\" of the parent domain.", "executability": "fully executable", "dataset": "fa.json", "USUBJID": "CDISC002", "row": 12, "SEQ": 6, "variables": ["FAOBJ", "RELREC.**DECOD", "RELREC.**TERM", "RELREC.**TRT"], "values": ["EDEMA", "null", "INJECTION SITE REACTION", "Not in dataset"]}, {"core_id": "CORE-000744", "message": "Related record is present in the parent domain dataset but FAOBJ is not equal to the \"TERM\", \"TRT\" or \"DECOD\" of the parent domain.", "executability": "fully executable", "dataset": "fa.json", "USUBJID": "CDISC002", "row": 13, "SEQ": 7, "variables": ["FAOBJ", "RELREC.**DECOD", "RELREC.**TERM", "RELREC.**TRT"], "values": ["ERYTHEMA", "null", "INJECTION SITE REACTION", "Not in dataset"]}, {"core_id": "CORE-000744", "message": "Related record is present in the parent domain dataset but FAOBJ is not equal to the \"TERM\", \"TRT\" or \"DECOD\" of the parent domain.", "executability": "fully executable", "dataset": "fa.json", "USUBJID": "CDISC002", "row": 14, "SEQ": 8, "variables": ["FAOBJ", "RELREC.**DECOD", "RELREC.**TERM", "RELREC.**TRT"], "values": ["ERYTHEMA", "null", "INJECTION SITE REACTION", "Not in dataset"]}, {"core_id": "CORE-000744", "message": "Related record is present in the parent domain dataset but FAOBJ is not equal to the \"TERM\", \"TRT\" or \"DECOD\" of the parent domain.", "executability": "fully executable", "dataset": "fa.json", "USUBJID": "CDISC002", "row": 15, "SEQ": 9, "variables": ["FAOBJ", "RELREC.**DECOD", "RELREC.**TERM", "RELREC.**TRT"], "values": ["PAIN", "null", "INJECTION SITE REACTION", "Not in dataset"]}, {"core_id": "CORE-000744", "message": "Related record is present in the parent domain dataset but FAOBJ is not equal to the \"TERM\", \"TRT\" or \"DECOD\" of the parent domain.", "executability": "fully executable", "dataset": "fa.json", "USUBJID": "CDISC002", "row": 16, "SEQ": 10, "variables": ["FAOBJ", "RELREC.**DECOD", "RELREC.**TERM", "RELREC.**TRT"], "values": ["INDURATION", "null", "INJECTION SITE REACTION", "Not in dataset"]}, {"core_id": "CORE-000744", "message": "Related record is present in the parent domain dataset but FAOBJ is not equal to the \"TERM\", \"TRT\" or \"DECOD\" of the parent domain.", "executability": "fully executable", "dataset": "fa.json", "USUBJID": "CDISC002", "row": 17, "SEQ": 11, "variables": ["FAOBJ", "RELREC.**DECOD", "RELREC.**TERM", "RELREC.**TRT"], "values": ["PRURITIS", "null", "INJECTION SITE REACTION", "Not in dataset"]}, {"core_id": "CORE-000744", "message": "Related record is present in the parent domain dataset but FAOBJ is not equal to the \"TERM\", \"TRT\" or \"DECOD\" of the parent domain.", "executability": "fully executable", "dataset": "fa.json", "USUBJID": "CDISC002", "row": 18, "SEQ": 12, "variables": ["FAOBJ", "RELREC.**DECOD", "RELREC.**TERM", "RELREC.**TRT"], "values": ["EDEMA", "null", "INJECTION SITE REACTION", "Not in dataset"]}, {"core_id": "CORE-000744", "message": "Related record is present in the parent domain dataset but FAOBJ is not equal to the \"TERM\", \"TRT\" or \"DECOD\" of the parent domain.", "executability": "fully executable", "dataset": "fa.json", "USUBJID": "CDISC003", "row": 19, "SEQ": 1, "variables": ["FAOBJ", "RELREC.**DECOD", "RELREC.**TERM", "RELREC.**TRT"], "values": ["ERYTHEMA", "null", "INJECTION SITE REACTION", "Not in dataset"]}, {"core_id": "CORE-000744", "message": "Related record is present in the parent domain dataset but FAOBJ is not equal to the \"TERM\", \"TRT\" or \"DECOD\" of the parent domain.", "executability": "fully executable", "dataset": "fa.json", "USUBJID": "CDISC003", "row": 20, "SEQ": 2, "variables": ["FAOBJ", "RELREC.**DECOD", "RELREC.**TERM", "RELREC.**TRT"], "values": ["ERYTHEMA", "null", "INJECTION SITE REACTION", "Not in dataset"]}, {"core_id": "CORE-000744", "message": "Related record is present in the parent domain dataset but FAOBJ is not equal to the \"TERM\", \"TRT\" or \"DECOD\" of the parent domain.", "executability": "fully executable", "dataset": "fa.json", "USUBJID": "CDISC003", "row": 21, "SEQ": 3, "variables": ["FAOBJ", "RELREC.**DECOD", "RELREC.**TERM", "RELREC.**TRT"], "values": ["PAIN", "null", "INJECTION SITE REACTION", "Not in dataset"]}, {"core_id": "CORE-000744", "message": "Related record is present in the parent domain dataset but FAOBJ is not equal to the \"TERM\", \"TRT\" or \"DECOD\" of the parent domain.", "executability": "fully executable", "dataset": "fa.json", "USUBJID": "CDISC003", "row": 22, "SEQ": 4, "variables": ["FAOBJ", "RELREC.**DECOD", "RELREC.**TERM", "RELREC.**TRT"], "values": ["INDURATION", "null", "INJECTION SITE REACTION", "Not in dataset"]}, {"core_id": "CORE-000744", "message": "Related record is present in the parent domain dataset but FAOBJ is not equal to the \"TERM\", \"TRT\" or \"DECOD\" of the parent domain.", "executability": "fully executable", "dataset": "fa.json", "USUBJID": "CDISC003", "row": 23, "SEQ": 5, "variables": ["FAOBJ", "RELREC.**DECOD", "RELREC.**TERM", "RELREC.**TRT"], "values": ["PRURITIS", "null", "INJECTION SITE REACTION", "Not in dataset"]}, {"core_id": "CORE-000744", "message": "Related record is present in the parent domain dataset but FAOBJ is not equal to the \"TERM\", \"TRT\" or \"DECOD\" of the parent domain.", "executability": "fully executable", "dataset": "fa.json", "USUBJID": "CDISC003", "row": 24, "SEQ": 6, "variables": ["FAOBJ", "RELREC.**DECOD", "RELREC.**TERM", "RELREC.**TRT"], "values": ["EDEMA", "null", "INJECTION SITE REACTION", "Not in dataset"]}, {"core_id": "CORE-000744", "message": "Related record is present in the parent domain dataset but FAOBJ is not equal to the \"TERM\", \"TRT\" or \"DECOD\" of the parent domain.", "executability": "fully executable", "dataset": "fa.json", "USUBJID": "CDISC005", "row": 25, "SEQ": 1, "variables": ["FAOBJ", "RELREC.**DECOD", "RELREC.**TERM", "RELREC.**TRT"], "values": ["ERYTHEMA", "null", "INJECTION SITE REACTION", "Not in dataset"]}, {"core_id": "CORE-000744", "message": "Related record is present in the parent domain dataset but FAOBJ is not equal to the \"TERM\", \"TRT\" or \"DECOD\" of the parent domain.", "executability": "fully executable", "dataset": "fa.json", "USUBJID": "CDISC005", "row": 26, "SEQ": 2, "variables": ["FAOBJ", "RELREC.**DECOD", "RELREC.**TERM", "RELREC.**TRT"], "values": ["PAIN", "null", "INJECTION SITE REACTION", "Not in dataset"]}, {"core_id": "CORE-000744", "message": "Related record is present in the parent domain dataset but FAOBJ is not equal to the \"TERM\", \"TRT\" or \"DECOD\" of the parent domain.", "executability": "fully executable", "dataset": "fa.json", "USUBJID": "CDISC005", "row": 27, "SEQ": 3, "variables": ["FAOBJ", "RELREC.**DECOD", "RELREC.**TERM", "RELREC.**TRT"], "values": ["PAIN", "null", "INJECTION SITE REACTION", "Not in dataset"]}, {"core_id": "CORE-000744", "message": "Related record is present in the parent domain dataset but FAOBJ is not equal to the \"TERM\", \"TRT\" or \"DECOD\" of the parent domain.", "executability": "fully executable", "dataset": "fa.json", "USUBJID": "CDISC005", "row": 28, "SEQ": 4, "variables": ["FAOBJ", "RELREC.**DECOD", "RELREC.**TERM", "RELREC.**TRT"], "values": ["INDURATION", "null", "INJECTION SITE REACTION", "Not in dataset"]}, {"core_id": "CORE-000744", "message": "Related record is present in the parent domain dataset but FAOBJ is not equal to the \"TERM\", \"TRT\" or \"DECOD\" of the parent domain.", "executability": "fully executable", "dataset": "fa.json", "USUBJID": "CDISC005", "row": 29, "SEQ": 5, "variables": ["FAOBJ", "RELREC.**DECOD", "RELREC.**TERM", "RELREC.**TRT"], "values": ["PRURITIS", "null", "INJECTION SITE REACTION", "Not in dataset"]}, {"core_id": "CORE-000744", "message": "Related record is present in the parent domain dataset but FAOBJ is not equal to the \"TERM\", \"TRT\" or \"DECOD\" of the parent domain.", "executability": "fully executable", "dataset": "fa.json", "USUBJID": "CDISC005", "row": 30, "SEQ": 6, "variables": ["FAOBJ", "RELREC.**DECOD", "RELREC.**TERM", "RELREC.**TRT"], "values": ["EDEMA", "null", "INJECTION SITE REACTION", "Not in dataset"]}, {"core_id": "CORE-000744", "message": "Related record is present in the parent domain dataset but FAOBJ is not equal to the \"TERM\", \"TRT\" or \"DECOD\" of the parent domain.", "executability": "fully executable", "dataset": "fa.json", "USUBJID": "CDISC005", "row": 31, "SEQ": 7, "variables": ["FAOBJ", "RELREC.**DECOD", "RELREC.**TERM", "RELREC.**TRT"], "values": ["ERYTHEMA", "null", "INJECTION SITE REACTION", "Not in dataset"]}, {"core_id": "CORE-000744", "message": "Related record is present in the parent domain dataset but FAOBJ is not equal to the \"TERM\", \"TRT\" or \"DECOD\" of the parent domain.", "executability": "fully executable", "dataset": "fa.json", "USUBJID": "CDISC005", "row": 32, "SEQ": 8, "variables": ["FAOBJ", "RELREC.**DECOD", "RELREC.**TERM", "RELREC.**TRT"], "values": ["PAIN", "null", "INJECTION SITE REACTION", "Not in dataset"]}, {"core_id": "CORE-000744", "message": "Related record is present in the parent domain dataset but FAOBJ is not equal to the \"TERM\", \"TRT\" or \"DECOD\" of the parent domain.", "executability": "fully executable", "dataset": "fa.json", "USUBJID": "CDISC005", "row": 33, "SEQ": 9, "variables": ["FAOBJ", "RELREC.**DECOD", "RELREC.**TERM", "RELREC.**TRT"], "values": ["INDURATION", "null", "INJECTION SITE REACTION", "Not in dataset"]}, {"core_id": "CORE-000744", "message": "Related record is present in the parent domain dataset but FAOBJ is not equal to the \"TERM\", \"TRT\" or \"DECOD\" of the parent domain.", "executability": "fully executable", "dataset": "fa.json", "USUBJID": "CDISC005", "row": 34, "SEQ": 10, "variables": ["FAOBJ", "RELREC.**DECOD", "RELREC.**TERM", "RELREC.**TRT"], "values": ["PRURITIS", "null", "INJECTION SITE REACTION", "Not in dataset"]}, {"core_id": "CORE-000744", "message": "Related record is present in the parent domain dataset but FAOBJ is not equal to the \"TERM\", \"TRT\" or \"DECOD\" of the parent domain.", "executability": "fully executable", "dataset": "fa.json", "USUBJID": "CDISC005", "row": 35, "SEQ": 11, "variables": ["FAOBJ", "RELREC.**DECOD", "RELREC.**TERM", "RELREC.**TRT"], "values": ["PRURITIS", "null", "INJECTION SITE REACTION", "Not in dataset"]}, {"core_id": "CORE-000744", "message": "Related record is present in the parent domain dataset but FAOBJ is not equal to the \"TERM\", \"TRT\" or \"DECOD\" of the parent domain.", "executability": "fully executable", "dataset": "fa.json", "USUBJID": "CDISC005", "row": 36, "SEQ": 12, "variables": ["FAOBJ", "RELREC.**DECOD", "RELREC.**TERM", "RELREC.**TRT"], "values": ["EDEMA", "null", "INJECTION SITE REACTION", "Not in dataset"]}, {"core_id": "CORE-000744", "message": "Related record is present in the parent domain dataset but FAOBJ is not equal to the \"TERM\", \"TRT\" or \"DECOD\" of the parent domain.", "executability": "fully executable", "dataset": "fa.json", "USUBJID": "CDISC005", "row": 37, "SEQ": 13, "variables": ["FAOBJ", "RELREC.**DECOD", "RELREC.**TERM", "RELREC.**TRT"], "values": ["ERYTHEMA", "null", "INJECTION SITE REACTION", "Not in dataset"]}, {"core_id": "CORE-000744", "message": "Related record is present in the parent domain dataset but FAOBJ is not equal to the \"TERM\", \"TRT\" or \"DECOD\" of the parent domain.", "executability": "fully executable", "dataset": "fa.json", "USUBJID"